millis,switch_on,fp,P,D,I,IMAX,max_rate,flip_pulse,climb_ms,rate_climb,rate_rec,u2_max,gyro_x,error,roll
72161,0,0,2.00,0.01010,,-0.44
72180,0,0,2.00,0.01010,0.50,500.00,500.00,,450,110,400.00,300.00,0.00050,0.06,0.00,R0050,0.13,0.00,-0.44
72262,0,0,2.00,0.01010,0.50,500.00,500.00,,450,110,400.00,300.00,0.00050,-0.06300.00,0.00050,0.13,0.00,-0.44
72303,0,0,2.00,0.01010,0.50,500.00,500.00,,450,110,400.00,30fc,400.00,300.00,0.00050,0.00,0.00,-0.44
72343,0,0,2.00,0.01010,0.50,500.00,500.00,0,0.50,500.00,500.00,,450,110,400.00,300.00,0.,500.00,,450,110,400.00,300.00,0.00050,0.00,0.00,-0.44
72425,0,0,2.00,0.01010,0.50,500.00,50,0.01010,0.50,500.00,500.00,,450,110,400.00,300.00,0.00050,-0.06,0.00,-0.44
724,450,110,400.00,300.00,0.00050,0.19,0.00,-0.44
72506,0,0,2.00,0.01010,0.<72526,0,0,2.00,0.01010,0.50,500.00,500.00,,450,110,400.00,300.00,0.00050,-0.25,0.00,-0.44
00,0.00,-0.44
72567,0,0,2.00,0.01010,0.50,500.00,500.00,,450,110,400.00,300.00,0.00500.00,,450,110,400.00,300.00,0.00050,0.00,0.00,-0.44
72647,0,0,2.00,0.01010,0.50,500.00,500.00,,450,110,400.00,300.00,dc,300.00,0.00050,0.06,0.00,-0.44
72685,0,0,2.00,0.01010,0.50,500.00,500.00,,45,0.00,0.00,-0.44
72728,0,0,2.00,0.01010,0.50,500.00,500.00,,450,110,400.00,450,110,400.00,300.00,0.00050,-0.19,0.00,-0.44
72768,0,0,2.00,0.01010,0.50,500.00,500.00,,40,500.00,500.00,,450,110,400.00,300.00,0.00050,0.06,0.00,-0.44
72808,0,0,2.00,0.4
72849,0,0,2.00,0.01010,0.50,500.00,500.00,,450,110,2.00,0.01010,0.50,500.00,500.00,,450,110,400.00,300.00,0.00050,0.06,0.00,-0.44
72888,0,0,2,-0.44
72909,0,0,2.00,0.01010,0.50,500.00,500.00,,450,110,400.00,300.00,0.00050,0.01010,0.50,500.00,500.00,,450,110,400.00,300.00,0.00050,0.13,0.00,-0.44
0.00,0.00,-0.44
72989,0,0,2.00,0.01010,0.50,500.00,500.00,,450,110,400.00,300.00,0.00050,0.300.00,0.00050,-0.13,0.00,-0.44
73030,0,0,2.00,0.01010,0.50,500.00,500.00,,450,110,.00,0.01010,0.50,500.00,500.00,,450,110,400.00,300.00,0.00050,gx0,400.00,300.00,0.00050,0.19,0.00,-0.44
73110,0,0,2.00,0.01010,0.50,500.00,500.00,,450,110,00.00,,450,110,400.00,300.00,0.00050,-0.06,0.00,-0.44
73150,0,0,2.00,0.01010,0.50,300.00,0.00050,-0.19,0.00,-0.44
73191,0,0,2.00,0.01010,0.50,500.00,500.00,,40.50,500.00,500.00,,450,110,400.00,300.00,0.00050,0.13,0.00,-0.44
73231,0,0,2.00,0.01010,0.51,0,0,2.00,0.01010,0.50,500.00,500.00,,450,110,400.00,300.00,0.00050,0.13,0.00,-0.400.00,300.00,0.00050,-0.13,0.00,-0.44
73311,0,0,2.00,0.01010,0,-0.44
73332,0,0,2.00,0.01010,0.50,500.00,500.00,,450,110,400.00,300.00,0.00050,-0.13,0.00,00050,0.00,0.00,-0.44
73412,0,0,2.00,0.01010,0.50,500.00,500.00,,450,110,400.00,300.00,0.00050,-0.0300.00,0.00050,0.13,0.00,-0.44
73452,0,0,2.00,0.01010,0.50,500.00,500.00,,450,110,400.00,30,110,400.00,300.00,0.00050,-0.31,0.00,-0.44
73492,0,0,2.00,0.01010,0.50,500.00,500.0010,0.50,500.00,500.00,,450,110,400.00,300.00,u200,500.00,,450,110,400.00,300.00,0.00050,0.00,0.00,-0.44
73573,0,0,2.00,0.01010,0.50,500.00.00,0.01010,0.50,500.00,500.00,,450,110,400.00,300.00,0.00050,-0.13,0.00,-0.44
7,,450,110,400.00,300.00,0.00050,0.06,0.00,-0.44
73674,0,0,2.00,0.01010,0.50,500.00,500.00,,450,110,400.00,300.00,0.00050,0.06,0.00,-0.44
06,0.00,-0.44
73714,0,0,2.00,0.01010,0.50,500.00,500.00,,450,110,400.00,300.00,0.00500.00,,450,110,400.00,300.00,0.00050,0.13,0.00,-0.44
73795,0,0,2.00,0.01010,0.50,500.00,500.00,,450,110,400.00,300.00,dc,300.00,0.00050,-0.13,0.00,-0.44
73835,0,0,2.00,0.01010,0.50,500.00,500.00,,40,0.13,0.00,-0.44
73876,0,0,2.00,0.01010,0.50,500.00,500.00,,450,110,400.00,450,110,400.00,300.00,0.00050,0.06,0.00,-0.44
73916,0,0,2.00,0.01010,0.50,500.00,500.00,,.50,500.00,500.00,,450,110,400.00,300.00,0.00050,0.06,0.00,-0.44
73956,0,0,2.00,44
73997,0,0,2.00,0.01010,0.50,500.00,500.00,,450,11,2.00,0.01010,0.50,500.00,500.00,,450,110,400.00,300.00,0.00050,-0.13,0.00,-0.44
74037,0,0,00,-0.44
74059,0,0,2.00,0.01010,0.50,500.00,500.00,,450,110,400.00,300.00,0.00050,-.01010,0.50,500.00,500.00,,450,110,400.00,300.00,0.00050,-0.06,0.00,"-0.44>x",0.00,-0.44
74139,0,0,2.00,0.01010,0.50,500.00,500.00,,450,110,400.00,300.00,0.00050,300.00,0.00050,-0.13,0.00,-0.44
74182,0,0,2.00,0.01010,0.50,500.00,500.00,,450,110,,0,2.00,0.01010,0.50,500.00,500.00,,450,110,400.00,300.00,0.0005c,400.00,300.00,0.00050,-0.06,0.00,-0.44
74263,0,0,2.00,0.01010,0.50,500.00,500.00,,450,fc.00,500.00,,450,110,400.00,300.00,0.00050,-0.06,0.00,-0.44
74303,0,0,2.00,0.0101400.00,300.00,0.00050,0.13,0.00,-0.44
74340,0,0,2.00,0.01010,0.50,500.00,500.00,,f010,0.50,500.00,500.00,,450,110,400.00,300.00,0.00050,0.13,0.00,-0.44
74384,0,0,2.00,0.0101<74404,0,0,2.00,0.01010,0.50,500.00,500.00,,450,110,400.00,300.00,0.00050,0.06,0.00,R50,0.00,0.00,-0.44
74464,0,0,2.00,0.01010,0.50,500..00,-0.44
74484,0,0,2.00,0.01010,0.50,500.00,500.00,,450,110,400.00,300.00,0.00050,-0.13,0.2,-0.13,0.00,-0.44
74524,0,0,2.00,0.01010,0.50,500.00,500.00,,450,110,400.00,d0.44
74565,0,0,2.00,0.01010,0.50,500.00,500.00,,450,110,400.00,300.00,0.00050,gx,300.00,0.00050,-0.06,0.00,-0.44
74605,0,0,2.00,0.01010,0.50,500.00,500.00,,450,110,400.00,450,110,400.00,300.00,0.00050,0.06,0.00,-0.44
74645,0,0,2.00,0.01010,0.50,500.00,50,-0.44
74685,0,0,2.00,0.01010,0.50,500.00,500.00,,450,110,400.0000,500.00,,450,110,400.00,300.00,0.00050,0.13,0.00,-0.44
74726,0,0,2.00,0.01010,0.50,500.0000,0.01010,0.50,500.00,500.00,,450,110,400.00,300.00,0.00050,-0.06,0.00,-0.44
74,,450,110,400.00,300.00,0.00050,-0.13,0.00,-0.44
74826,0,0,2.00,0.01010,0.50,500.00,500.00,,450,110,400.00,300.00,0.00050,-0.25,0.00,-0.44
74867,0,0,2.00,0.01010,0.50,500.00,500.00,,450,110,400.00,300.00,0.0.00,300.00,0.00050,0.00,0.00,-0.44
74927,0,0,0.00050,0.06,0.00,-0.44
74947,0,0,2.00,0.01010,0.50,500.00,500.00,,450,110,400.00,300.00,c,300.00,0.00050,0.00,0.00,-0.44
74987,0,0,2.00,0.01010,0.50,500.00,500.00,,450gx,0.00,-0.44
75027,0,0,2.00,0.01010,0.50,500.00,500.00,,450,110,400.00,3,110,400.00,300.00,0.00050,-0.06,0.00,-0.44
75068,0,0,2.00,0.01010,0.50,500.00,500.00,,50,500.00,500.00,,450,110,400.00,300.00,0.00050,0.06,0.00,-0.44
75108,0,0,2.00,000050,0.00,0.00,-0.44
75148,0,0,2.00,0.01010,0.50,500.00,500.00,,.00,0.01010,0.50,500.00,500.00,,450,110,400.00,300.00,0.00050,0.25,0.00,-0.44
75188,0,0,2.0-0.44
75208,0,0,2.00,0.01010,0.50,500.00,500.00,,450,110,400.00,300.00,0.00050,0.06,e,0.50,500.00,500.00,,450,110,400.00,300.00,0.00050,-0.31,0.00,-0.44
752613,0.00,-0.44
75289,0,0,2.00,0.01010,0.50,500.00,500.00,,450,110,400.00,300.00,0.00050,0.06.00,0.00050,0.06,0.00,-0.44
75329,0,0,2.00,0.01010,0.50,500.00,500.00,,450,110,400.d,110,400.00,300.00,0.00050,0.00,0.00,,300.00,0.00050,-0.13,0.00,-0.44
75409,0,0,2.00,0.01010,0.50,500.00,500.00,,450,110,.00,,450,110,400.00,300.00,0.00050,-0.06,0.00,-0.44
75450,0,0,2.00,0.01010,0.50,,300.00,0.00050,-0.06,0.00,-0.44
75490,0,0,2.00,0.01010,0.50,500.00,500.00,,4550,500.00,500.00,,450,110,400.00,300.00,0.00050,-0.13,0.00,-0.44
75530,0,0,2.00,0.01010,0.51,0,0,2.00,0.01010,0.50,500.00,500.00,,450,110,400.00,300.00,0.00050,-0.13,0.00,-0.400.00,300.00,0.00050,-0.06,0.00,-0.44
75611,0,0,2.00,0.01010,0,-0.44
75631,0,0,2.00,0.01010,0.50,500.00,500.00,,450,110,400.00,300.00,0.00050,0.00,0.00,R0050,0.06,0.00,-0.44
75712,0,0,2.00,0.01010,0.50,500.00,500.00,,450,110,400.00,300.00,0.00050,-0.0,0.00050,-0.13,0.00,-0.44
75753,0,0,2.00,0.01010,0.50,500.00,500.00,,450,110,400.00,0,110,400.00,300.00,0.00050,0.13,0.00,-0.44
75793,0,0,2.00,0.01010,0.50,500.00,-0.44
75834,0,0,2.00,0.01010,0.50,500.00,500.00,,450,110,400.00,dr500.00,,450,110,400.00,300.00,0.00050,-0.13,0.00,-0.44
75875,0,0,2.00,0.01010,0.50,500.00,5,0.01010,0.50,500.00,500.00,,450,110,400.00,300.00,0.00050,-0.31,0.00,-0.44
450,110,400.00,300.00,0.00050,0.06,0.00,-0.44
75956,0,0,2.00,0.01010,0.575977,0,0,2.00,0.01010,0.50,500.00,500.00,,450,110,400.00,300.00,0.00050,0.06,0.00,-0.44
75,0.00,-0.44
76017,0,0,2.00,0.01010,0.50,500.00,500.00,,450,110,400.00,300.00,0.0005,300.00,0.00050,0.13,0.00,-0.44
76078,0,0,2.0.00050,0.06,0.00,-0.44
76095,0,0,2.00,0.01010,0.50,500.00,500.00,,450,110,400.00,300.00,0.000.00,300.00,0.00050,-0.06,0.00,-0.44
76139,0,0,2.00,0.01010,0.50,500.00,500.00,,450,f-0.06,0.00,-0.44
76179,0,0,2.00,0.01010,0.50,500.00,500.00,,450,110,400.00,30050,110,400.00,300.00,0.00050,-0.13,0.00,-0.44
76220,0,0,2.00,0.01010,0.50,500.00,500.00,,450,500.00,500.00,,450,110,400.00,300.00,0.00050,-0.13,0.00,-0.44
76260,0,0,2.00,000050,0.13,0.00,-0.44
76298,0,0,2.00,0.01010,0.50,500.00,500.00,,.00,0.01010,0.50,500.00,500.00,,450,110,400.00,300.00,0.00050,-0.13,0.00,-0.44
76341,0,0,-0.44
76361,0,0,2.00,0.01010,0.50,500.00,500.00,,450,110,400.00,300.00,0.00050,0.0610,0.50,500.00,500.00,,450,110,400.00,300.00,0.00050,0.00,0.00,-0.44
76413,0.00,-0.44
76442,0,0,2.00,0.01010,0.50,500.00,500.00,,450,110,400.00,300.00,0.00050,0.13.00,0.00050,-0.13,0.00,-0.44
76482,0,0,2.00,0.01010,0.50,500.00,500.00,,450,110,400pd,110,400.00,300.00,0.00050,0.06,0.00,400.00,300.00,0.00050,0.00,0.00,-0.44
76562,0,0,2.00,0.01010,0.50,500.00,500.00,,450,110,dc0.00,,450,110,400.00,300.00,0.00050,0.19,0.00,-0.44
76602,0,0,2.00,0.01010,0.50,300.00,0.00050,0.19,0.00,-0.44
76643,0,0,2.00,0.01010,0.50,500.00,500.00,,450,0,500.00,500.00,,450,110,400.00,300.00,0.00050,0.06,0.00,-0.44
76683,0,0,2.00,0.01010,0.50,0,0,2.00,0.01010,0.50,500.00,500.00,,450,110,400.00,300.00,0.00050,0.00,0.00,-0.44>.00,300.00,0.00050,0.06,0.00,-0.44
76763,0,0,2.00,0.01010,0.50,.44
76783,0,0,2.00,0.01010,0.50,500.00,500.00,,450,110,400.00,300.00,0.00050,0.19,0.00,-0.4,0.00,0.00,-0.44
76823,0,0,2.00,0.01010,0.50,500.00,500.00,,450,110,400.00,300.00,u63,0,0,2.00,0.01010,0.50,500.00,500.00,,450,110,400.00,300.00,0.00050,0.13,0.,0.00050,0.00,0.00,-0.44
76904,0,0,2.00,0.01010,0.50,500.00,500.00,,450,110,400.00,300.00,u,400.00,300.00,0.00050,-0.13,0.00,-0.44
76944,0,0,2.00,0.01010,0.50,500.00,500.00,,0,500.00,500.00,,450,110,400.00,300.00,0.0005000,,450,110,400.00,300.00,0.00050,-0.06,0.00,-0.44
77025,0,0,2.00,0.01010,0.50,500.00,500.001010,0.50,500.00,500.00,,450,110,400.00,300.00,0.00050,0.06,0.00,-0.44
77065,0,450,110,400.00,300.00,0.00050,0.06,0.00,-0.44
77105,0,0,2.00,0.01010,0.50,50,0,0,2.00,0.01010,0.50,500.00,500.00,,450,110,400.00,300.00,0.00050,0.13,0.00,-0.44
77145,00.00,-0.44
77166,0,0,2.00,0.01010,0.50,500.00,500.00,,450,110,400.00,300.00,0.00050,gx,,450,110,400.00,300.00,0.00050,0.19,0.00,-0.44
77226,50,-0.13,0.00,-0.44
77246,0,0,2.00,0.01010,0.50,500.00,500.00,,450,110,400.00,300.00,0.0005.00,300.00,0.00050,0.00,0.00,-0.44
77286,0,0,2.00,0.01010,0.50,500.00,500.00,,450,13,0.00,-0.44
77326,0,0,2.00,0.01010,0.50,500.00,500.00,,450,110,400.00,300.00,110,400.00,300.00,0.00050,0.06,0.00,-0.44
77367,0,0,2.00,0.01010,0.50,500.00,500.00,,450,.00,500.00,,450,110,400.00,300.00,0.00050,0.06,0.00,-0.44
77407,0,0,2.00,0.0101047,0,0,2.00,0.01010,0.50,500.00,500.00,,450,110,400..01010,0.50,500.00,500.00,,450,110,400.00,300.00,0.00050,0.00,0.00,-0.44
77488,0,0,2.00,0.0
77508,0,0,2.00,0.01010,0.50,500.00,500.00,,450,110,400.00,300.00,0.00050,0.19,0.0,500.00,500.00,,450,110,400.00,300.00,0.00050,-0.06,0.00,-0.44
77568,0,0.00,-0.44
77589,0,0,2.00,0.01010,0.50,500.00,500.00,,450,110,400.00,300.00,0.00050,0.06,02,0.13,0.00,-0.44
77629,0,0,2.00,0.01010,0.50,500.00,500.00,,450,110,400.00,dr10,0.50,500.00,500.00,,450,110,400.00,300.00,0.00050,0.13,00,300.00,0.00050,0.00,0.00,-0.44
77709,0,0,2.00,0.01010,0.50,500.00,500.00,,450,110,400.00d,110,400.00,300.00,0.00050,-0.13,0.00,-0.44
77750,0,0,2.00,0.01010,0.50,500.00,00,0.00050,0.13,0.00,-0.44
77790,0,0,2.00,0.01010,0.50,500.00,500.00,,450,110,0,500.00,,450,110,400.00,300.00,0.00050,0.06,0.00,-0.44
77831,0,0,2.00,0.01010,0.50,500.00,00,0.01010,0.50,500.00,500.00,,450,110,400.00,300.00,0.00050,-0.13,0.00,-0.44
300.00,0.00050,0.19,0.00,-0.44
77912,0,0,2.00,0.01010,0.50,500.0
77932,0,0,2.00,0.01010,0.50,500.00,500.00,,450,110,400.00,300.00,0.00050,-0.19,0.00,-0.44>,0.00,-0.44
77973,0,0,2.00,0.01010,0.50,500.00,500.00,,450,110,400.00,300.00,14,0,0,2.00,0.01010,0.50,500.00,500.00,,450,110,400.00,300.00,0.00050,-0.06,0,0.00050,0.13,0.00,-0.44
78053,0,0,2.00,0.01010,0.50,500.00,500.00,,450,110,400.00,300.00,u0,400.00,300.00,0.00050,-0.13,0.00,-0.44
78096,0,0,2.00,0.01010,0.50,500.00,500.00,,fpd.50,500.00,500.00,,450,110,400.00,300.00,0.000.00,,450,110,400.00,300.00,0.00050,-0.13,0.00,-0.44
78177,0,0,2.00,0.01010,0.50,500.00,5000.01010,0.50,500.00,500.00,,450,110,400.00,300.00,0.00050,0.06,0.00,-0.44
78218,450,110,400.00,300.00,0.00050,0.00,0.00,-0.44
78256,0,0,2.00,0.01010,0.50,78,0,0,2.00,0.01010,0.50,500.00,500.00,,450,110,400.00,300.00,0.00050,0.19,0.00,-0.44
0.00,-0.44
78318,0,0,2.00,0.01010,0.50,500.00,500.00,,450,110,400.00,300.00,0.00050,g,,450,110,400.00,300.00,0.00050,0.06,0.00,-0.44
78378050,0.06,0.00,-0.44
78399,0,0,2.00,0.01010,0.50,500.00,500.00,,450,110,400.00,300.00,0.0005.00,300.00,0.00050,0.06,0.00,-0.44
78439,0,0,2.00,0.01010,0.50,500.00,500.00,,450,113,0.00,-0.44
78479,0,0,2.00,0.01010,0.50,500.00,500.00,,450,110,400.00,300.00,400.00,300.00,0.00050,-0.25,0.00,-0.44
78519,0,0,2.00,0.01010,0.50,500.00,500.00,,450,.00,500.00,,450,110,400.00,300.00,0.00050,-0.06,0.00,-0.44
78559,0,0,2.00,0.01018600,0,0,2.00,0.01010,0.50,500.00,500.00,,450,110,40,0.01010,0.50,500.00,500.00,,450,110,400.00,300.00,0.00050,-0.06,0.00,-0.44
78640,0,0,2.00-0.44
78660,0,0,2.00,0.01010,0.50,500.00,500.00,,450,110,400.00,300.00,0.00050,-0.19,0,0.50,500.00,500.00,,450,110,400.00,300.00,0.00050,-0.19,0.00,-0.44
78713,0.00,-0.44
78741,0,0,2.00,0.01010,0.50,500.00,500.00,,450,110,400.00,300.00,0.00050,0.00.00,0.00050,0.06,0.00,-0.44
78781,0,0,2.00,0.01010,0.50,500.00,500.00,,450,110,400.0.01010,0.50,500.00,500.00,,450,110,400.00,300.00,0.00050,-0.c,300.00,0.00050,0.06,0.00,-0.44
78862,0,0,2.00,0.01010,0.50,500.00,500.00,,450,110,.00,,450,110,400.00,300.00,0.00050,-0.06,0.00,-0.44
78902,0,0,2.00,0.01010,0.50,300.00,0.00050,-0.13,0.00,-0.44
78942,0,0,2.00,0.01010,0.50,500.00,500.00,,4500,500.00,500.00,,450,110,400.00,300.00,0.00050,0.00,0.00,-0.44
78982,0,0,2.00,0.01010,0.50,3,0,0,2.00,0.01010,0.50,500.00,500.00,,450,110,400.00,300.00,0.00050,-0.13,0.00,-0.x,0.00,-0.44
79063,0,0,2.00,0.01010,0.50,500.00,0,-0.44
79083,0,0,2.00,0.01010,0.50,500.00,500.00,,450,110,400.00,300.00,0.00050,0.13,0.00,00050,-0.06,0.00,-0.44
79124,0,0,2.00,0.01010,0.50,500.00,500.00,,450,110,400.00,30
79164,0,0,2.00,0.01010,0.50,500.00,500.00,,450,110,400.00,300.00,0.00050,-0.r,0.00050,0.13,0.00,-0.44
79204,0,0,2.00,0.01010,0.50,500.00,500.00,,450,110,400.00,50,110,400.00,300.00,0.00050,-0.06,0.00,-0.44
79245,0,0,2.00,0.01010,0.50,500.00,5000,-0.44
79286,0,0,2.00,0.01010,0.50,500.00,500.00,,450,110,400.00,.00,500.00,,450,110,400.00,300.00,0.00050,-0.19,0.00,-0.44
79327,0,0,2.00,0.01010,0.50,500.2.00,0.01010,0.50,500.00,500.00,,450,110,400.00,300.00,0.00050,-0.06,0.00,-0.44
00,,450,110,400.00,300.00,0.00050,-0.13,0.00,-0.44
79407,0,0,2.00,0.0101
79428,0,0,2.00,0.01010,0.50,500.00,500.00,,450,110,400.00,300.00,0.00050,0.19,0.00,"-0.44>-0.06",0.00,-0.44
79469,0,0,2.00,0.01010,0.50,500.00,500.00,,450,110,400.00,300.00,00.00,300.00,0.00050,0.13,0.00,-0.44
79530,0,0,0.00050,0.25,0.00,-0.44
79550,0,0,2.00,0.01010,0.50,500.00,500.00,,450,110,400.00,300.00,u,400.00,300.00,0.00050,0.19,0.00,-0.44
79590,0,0,2.00,0.01010,0.50,500.00,500.00,,4,0.19,0.00,-0.44
79631,0,0,2.00,0.01010,0.50,500.00,500.00,,450,110,400.00,,110,400.00,300.00,0.00050,0.00,0.00,-0.44
79671,0,0,2.00,0.01010,0.50,500.00,500.00,,450,500.00,500.00,,450,110,400.00,300.00,0.00050,0.19,0.00,-0.44
79709,0,0,2.00,000050,-0.06,0.00,-0.44
79752,0,0,2.00,0.01010,0.50,500.00,500.00,,fpd2.00,0.01010,0.50,500.00,500.00,,450,110,400.00,300.00,0.00050,0.13,0.00,-0.44
79793,0,0,-0.44
79810,0,0,2.00,0.01010,0.50,500.00,500.00,,450,110,400.00,300.00,0.00050,0.06,0,0.50,500.00,500.00,,450,110,400.00,300.00,0.00050,0.06,0.00,-0.44
7987,0.00,-0.44
79893,0,0,2.00,0.01010,0.50,500.00,500.00,,450,110,400.00,300.00,0.00050,-0.06,.00,0.00050,-0.06,0.00,-0.44
79934,0,0,2.00,0.01010,0.50,500.00,500.00,,450,110,400pd,110,400.00,300.00,0.00050,0.13,0.00,400.00,300.00,0.00050,-0.19,0.00,-0.44
80011,0,0,2.00,0.01010,0.50,500.00,500.00,,450,110,dc0.00,,450,110,400.00,300.00,0.00050,-0.06,0.00,-0.44
80055,0,0,2.00,0.01010,0.500,300.00,0.00050,-0.06,0.00,-0.44
80095,0,0,2.00,0.01010,0.50,500.00,500.00,,40.50,500.00,500.00,,450,110,400.00,300.00,0.00050,0.06,0.00,-0.44
80135,0,0,2.00,0.01010,0.156,0,0,2.00,0.01010,0.50,500.00,500.00,,450,110,400.00,300.00,0.00050,0.13,0.00,-0c,300.00,0.00050,-0.13,0.00,-0.44
80216,0,0,2.00,0.0101000,-0.44
80236,0,0,2.00,0.01010,0.50,500.00,500.00,,450,110,400.00,300.00,0.00050,0.25,0.000.00050,-0.31,0.00,-0.44
80276,0,0,2.00,0.01010,0.50,500.00,500.00,,450,110,400.00,4
80316,0,0,2.00,0.01010,0.50,500.00,500.00,,450,110,400.00,300.00,0.00050,-0r,0.00050,-0.13,0.00,-0.44
80357,0,0,2.00,0.01010,0.50,500.00,500.00,,450,110,400.00,dr450,110,400.00,300.00,0.00050,0.00,0.00,-0.44
80397,0,0,2.00,0.01010,0.50,500.00,500,-0.44
80437,0,0,2.00,0.01010,0.50,500.00,500.00,,450,110,400.00,0,500.00,,450,110,400.00,300.00,0.00050,0.25,0.00,-0.44
80477,0,0,2.00,0.01010,0.50,500.00,0,0.01010,0.50,500.00,500.00,,450,110,400.00,300.00,0.00050,-0.06,0.00,-0.44
450,110,400.00,300.00,0.00050,0.00,0.00,-0.44
80558,0,0,2.00,0.01010,0.50578,0,0,2.00,0.01010,0.50,500.00,500.00,,450,110,400.00,300.00,0.00050,0.00,0.00,-0.44
0.00,-0.44
80618,0,0,2.00,0.01010,0.50,500.00,500.00,,450,110,400.00,300.00,0.00050r,0.00050,0.00,0.00,-0.44
80678,0,0,2.00,00050,0.06,0.00,-0.44
80698,0,0,2.00,0.01010,0.50,500.00,500.00,,450,110,400.00,300.00,0.000.00,300.00,0.00050,0.00,0.00,-0.44
80738,0,0,2.00,0.01010,0.50,500.00,500.00,,450,0.13,0.00,-0.44
80779,0,0,2.00,0.01010,0.50,500.00,500.00,,450,110,400.00,300.,110,400.00,300.00,0.00050,-0.13,0.00,-0.44
80819,0,0,2.00,0.01010,0.50,500.00,500.00,,450,00.00,500.00,,450,110,400.00,300.00,0.00050,0.00,0.00,-0.44
80859,0,0,2.00,0.01050,0.25,0.00,-0.44
80900,0,0,2.00,0.01010,0.50,500.00,500.00,,450,0.01010,0.50,500.00,500.00,,450,110,400.00,300.00,0.00050,0.06,0.00,-0.44
80940,0,0,2.00,044
80960,0,0,2.00,0.01010,0.50,500.00,500.00,,450,110,400.00,300.00,0.00050,0.00,0.50,500.00,500.00,,450,110,400.00,300.00,0.00050,0.06,0.00,-0.44
81020,0.00,-0.44
81040,0,0,2.00,0.01010,0.50,500.00,500.00,,450,110,400.00,300.00,0.00050,-0.13,er,0.00050,-0.06,0.00,-0.44
81081,0,0,2.00,0.01010,0.50,500.00,500.00,,450,110,400.0050,110,400.00,300.00,0.00050,0.13,0.00,-0.0.00,300.00,0.00050,-0.06,0.00,-0.44
81161,0,0,2.00,0.01010,0.50,500.00,500.00,,450,110,400,450,110,400.00,300.00,0.00050,0.25,0.00,-0.44
81202,0,0,2.00,0.01010,0.50,500.00.00,0.00050,0.19,0.00,-0.44
81242,0,0,2.00,0.01010,0.50,500.00,500.00,,450,11.00,500.00,,450,110,400.00,300.00,0.00050,0.00,0.00,-0.44
81282,0,0,2.00,0.01010,0.50,500.0.00,0.01010,0.50,500.00,500.00,,450,110,400.00,300.00,0.00050,0.13,0.00,-0.44
300.00,0.00050,0.06,0.00,-0.44
81383,0,0,2.00,0.01010,0.50,500.00,500.00,,450,110,400.00,300.00,0.00050,-0.25,0.00,"-0.44>",0.00,-0.44
81424,0,0,2.00,0.01010,0.50,500.00,500.00,,450,110,400.00,300.00,,0,0,2.00,0.01010,0.50,500.00,500.00,,450,110,400.00,300.00,0.00050,0.00,0.002,-0.13,0.00,-0.44
81505,0,0,2.00,0.01010,0.50,500.00,500.00,,450,110,400.00,300.00,400.00,300.00,0.00050,-0.19,0.00,-0.44
81545,0,0,2.00,0.01010,0.50,500.00,500.00,,4,500.00,500.00,,450,110,400.00,300.00,0.00050,,,450,110,400.00,300.00,0.00050,0.00,0.00,-0.44
81627,0,0,2.00,0.01010,0.50,500.00,500.00,,0,0.50,500.00,500.00,,450,110,400.00,300.00,0.00050,0.00,0.00,-0.44
81665,0,0,110,400.00,300.00,0.00050,-0.19,0.00,-0.44
81708,0,0,2.00,0.01010,0.50,500.00,2.00,0.01010,0.50,500.00,500.00,,450,110,400.00,300.00,0.00050,0.06,0.00,-0.44
81749,0,0,00,-0.44
81767,0,0,2.00,0.01010,0.50,500.00,500.00,,450,110,400.00,300.00,0.00050,-,450,110,400.00,300.00,0.00050,-0.13,0.00,-0.44
8183050,0.06,0.00,-0.44
81850,0,0,2.00,0.01010,0.50,500.00,500.00,,450,110,400.00,300.00,0.00050.00,300.00,0.00050,-0.13,0.00,-0.44
81891,0,0,2.00,0.01010,0.50,500.00,500.00,,450,0,0.00,-0.44
81931,0,0,2.00,0.01010,0.50,500.00,500.00,,450,110,400.00,300.00,110,400.00,300.00,0.00050,-0.13,0.00,-0.44
81970,0,0,2.00,0.01010,0.50,500.00,500.00,,450,fc.00,500.00,,450,110,400.00,300.00,0.00050,0.13,0.00,-0.44
82012,0,0,2.00,0.0101052,0,0,2.00,0.01010,0.50,500.00,500.00,,450,110,40001010,0.50,500.00,500.00,,450,110,400.00,300.00,0.00050,-0.06,0.00,-0.44
82092,0,0,2.00,0.04
82113,0,0,2.00,0.01010,0.50,500.00,500.00,,450,110,400.00,300.00,0.00050,0.31,00,500.00,500.00,,450,110,400.00,300.00,0.00050,-0.06,0.00,-0.44
82172,0,0.00,-0.44
82193,0,0,2.00,0.01010,0.50,500.00,500.00,,450,110,400.00,300.00,0.00050,-0.06,u2,-0.06,0.00,-0.44
82233,0,0,2.00,0.01010,0.50,500.00,500.00,,450,110,400.00,1010,0.50,500.00,500.00,,450,110,400.00,300.00,0.00050,0.06,e0.00,300.00,0.00050,0.00,0.00,-0.44
82314,0,0,2.00,0.01010,0.50,500.00,500.00,,450,110,400.,450,110,400.00,300.00,0.00050,-0.06,0.00,-0.44
82354,0,0,2.00,0.01010,0.50,500.00.00,0.00050,0.31,0.00,-0.44
82394,0,0,2.00,0.01010,0.50,500.00,500.00,,450,10.00,500.00,,450,110,400.00,300.00,0.00050,-0.19,0.00,-0.44
82434,0,0,2.00,0.01010,0.50,5000,2.00,0.01010,0.50,500.00,500.00,,450,110,400.00,300.00,0.00050,-0.25,0.00,"-0.44>0.00",300.00,0.00050,0.00,0.00,-0.44
82515,0,0,2.00,0.01010,0.50-0.44
82535,0,0,2.00,0.01010,0.50,500.00,500.00,,450,110,400.00,300.00,0.00050,0.19,0.00,-00,-0.13,0.00,-0.44
82575,0,0,2.00,0.01010,0.50,500.00,500.00,,450,110,400.00,300.002616,0,0,2.00,0.01010,0.50,500.00,500.00,,450,110,400.00,300.00,0.00050,0.13,00,0.00050,-0.25,0.00,-0.44
82656,0,0,2.00,0.01010,0.50,500.00,500.00,,450,110,400.00,300.0,400.00,300.00,0.00050,-0.06,0.00,-0.44
82696,0,0,2.00,0.01010,0.50,500.00,500.00,,0.50,500.00,500.00,,450,110,400.00,300.00,0.0000.00,,450,110,400.00,300.00,0.00050,0.13,0.00,-0.44
82777,0,0,2.00,0.01010,0.50,500.00,5000.01010,0.50,500.00,500.00,,450,110,400.00,300.00,0.00050,-0.19,0.00,-0.44
450,110,400.00,300.00,0.00050,-0.06,0.00,-0.44
82858,0,0,2.00,0.01010,0.52878,0,0,2.00,0.01010,0.50,500.00,500.00,,450,110,400.00,300.00,0.00050,-0.19,0.00,-0.44
826,0.00,-0.44
82918,0,0,2.00,0.01010,0.50,500.00,500.00,,450,110,400.00,300.00,0.00000.00,,450,110,400.00,300.00,0.00050,-0.06,0.00,-0.44
82999,0,0,2.00,0.01010,0.50,500.00,500.00,,450,110,400.00,300.00,c,300.00,0.00050,-0.13,0.00,-0.44
83040,0,0,2.00,0.01010,0.50,500.00,500.00,,45,-0.13,0.00,-0.44
83081,0,0,2.00,0.01010,0.50,500.00,500.00,,450,110,400.00,450,110,400.00,300.00,0.00050,0.00,0.00,-0.44
83120,0,0,2.00,0.01010,0.50,500.00,500.00,,fpd0.50,500.00,500.00,,450,110,400.00,300.00,0.00050,-0.06,0.00,-0.44
83162,0,0,2.044
83203,0,0,2.00,0.01010,0.50,500.00,500.00,,450,11,0,2.00,0.01010,0.50,500.00,500.00,,450,110,400.00,300.00,0.00050,0.00,0.00,-0.44
83244,0,00,-0.44
83264,0,0,2.00,0.01010,0.50,500.00,500.00,,450,110,400.00,300.00,0.00050,-0.01010,0.50,500.00,500.00,,450,110,400.00,300.00,0.00050,0.00,0.00,-0.44
83345,0,0,2.00,0.01010,0.50,500.00,500.00,,450,110,400.00,300.00,0.00050,300.00,0.00050,0.06,0.00,-0.44
83386,0,0,2.00,0.01010,0.50,500.00,500.00,,450,110,d2.00,0.01010,0.50,500.00,500.00,,450,110,400.00,300.00,0.00050,g10,400.00,300.00,0.00050,0.06,0.00,-0.44
83466,0,0,2.00,0.01010,0.50,500.00,500.00,,450,110,500.00,,450,110,400.00,300.00,0.00050,-0.06,0.00,-0.44
83507,0,0,2.00,0.01010,0.00,300.00,0.00050,-0.19,0.00,-0.44
83547,0,0,2.00,0.01010,0.50,500.00,500.00,,fpd0,0.50,500.00,500.00,,450,110,400.00,300.00,0.00050,0.13,0.00,-0.44
83588,0,0,2.00,0.01010,83608,0,0,2.00,0.01010,0.50,500.00,500.00,,450,110,400.00,300.00,0.00050,-0.06,0.00,R050,0.13,0.00,-0.44
83668,0,0,2.00,0.01010,0.50,0.00,-0.44
83688,0,0,2.00,0.01010,0.50,500.00,500.00,,450,110,400.00,300.00,0.00050,-0.13,u2,0.06,0.00,-0.44
83728,0,0,2.00,0.01010,0.50,500.00,500.00,,450,110,400.00,d0.44
83769,0,0,2.00,0.01010,0.50,500.00,500.00,,450,110,400.00,300.00,0.00050,gx0,300.00,0.00050,-0.19,0.00,-0.44
83809,0,0,2.00,0.01010,0.50,500.00,500.00,,450,110,400.00d,110,400.00,300.00,0.00050,0.19,0.00,-0.44
83849,0,0,2.00,0.01010,0.50,500.00,500,-0.44
83889,0,0,2.00,0.01010,0.50,500.00,500.00,,450,110,400.00.00,500.00,,450,110,400.00,300.00,0.00050,-0.06,0.00,-0.44
83930,0,0,2.00,0.01010,0.50,5000,2.00,0.01010,0.50,500.00,500.00,,450,110,400.00,300.00,0.00050,0.00,0.00,-0.44
84010,0,0,2.00,0.0101
84030,0,0,2.00,0.01010,0.50,500.00,500.00,,450,110,400.00,300.00,0.00050,0.13,0.00,"-0.44>0.25",0.00,-0.44
84071,0,0,2.00,0.01010,0.50,500.00,500.00,,450,110,400.00,300.00,0.0.00,300.00,0.00050,0.00,0.00,-0.44
84131,0,0.00050,-0.06,0.00,-0.44
84151,0,0,2.00,0.01010,0.50,500.00,500.00,,450,110,400.00,300.00,u0,400.00,300.00,0.00050,0.06,0.00,-0.44
84191,0,0,2.00,0.01010,0.50,500.00,500.00,,fpd0,0.13,0.00,-0.44
84232,0,0,2.00,0.01010,0.50,500.00,500.00,,450,110,400.00,450,110,400.00,300.00,0.00050,0.13,0.00,-0.44
84272,0,0,2.00,0.01010,0.50,500.00,500.00,,.50,500.00,500.00,,450,110,400.00,300.00,0.00050,-0.06,0.00,-0.44
84312,0,0,2.000.00050,0.06,0.00,-0.44
84352,0,0,2.00,0.01010,0.50,500.00,500.00,,fp2.00,0.01010,0.50,500.00,500.00,,450,110,400.00,300.00,0.00050,0.25,0.00,-0.44
84392,0,0,-0.44
84412,0,0,2.00,0.01010,0.50,500.00,500.00,,450,110,400.00,300.00,0.00050,0.2510,0.50,500.00,500.00,,450,110,400.00,300.00,0.00050,-0.06,0.00,-0.44
840.13,0.00,-0.44
84493,0,0,2.00,0.01010,0.50,500.00,500.00,,450,110,400.00,300.00,0.00050,-0300.00,0.00050,-0.13,0.00,-0.44
84533,0,0,2.00,0.01010,0.50,500.00,500.00,,450,110,0,,450,110,400.00,300.00,0.00050,0.06,0.10,400.00,300.00,0.00050,-0.19,0.00,-0.44
84614,0,0,2.00,0.01010,0.50,500.00,500.00,,450,110,500.00,,450,110,400.00,300.00,0.00050,0.13,0.00,-0.44
84654,0,0,2.00,0.01010,0.00,300.00,0.00050,0.31,0.00,-0.44
84695,0,0,2.00,0.01010,0.50,500.00,500.00,,fpd,0.50,500.00,500.00,,450,110,400.00,300.00,0.00050,-0.13,0.00,-0.44
84735,0,0,2.00,0.01010,4755,0,0,2.00,0.01010,0.50,500.00,500.00,,450,110,400.00,300.00,0.00050,0.13,0.00,-dc,300.00,0.00050,-0.19,0.00,-0.44
84816,0,0,2.00,0.010100,-0.44
84836,0,0,2.00,0.01010,0.50,500.00,500.00,,450,110,400.00,300.00,0.00050,0.06,0.000.00050,0.13,0.00,-0.44
84876,0,0,2.00,0.01010,0.50,500.00,500.00,,450,110,400.00,3
84916,0,0,2.00,0.01010,0.50,500.00,500.00,,450,110,400.00,300.00,0.00050,-0.r,0.00050,-0.31,0.00,-0.44
84957,0,0,2.00,0.01010,0.50,500.00,500.00,,450,110,400.00,dr450,110,400.00,300.00,0.00050,-0.19,0.00,-0.44
84998,0,0,2.00,0.01010,0.50,500.00,5000,-0.44
85039,0,0,2.00,0.01010,0.50,500.00,500.00,,450,110,400.000.00,500.00,,450,110,400.00,300.00,0.00050,0.06,0.00,-0.44
85078,0,0,2.00,0.01010,0.50,5000,2.00,0.01010,0.50,500.00,500.00,,450,110,400.00,300.00,0.00050,0.13,0.00,-0.44
85179,0,0,2.00,0.01010,0.50,500.00,500.00,,450,110,400.00,300.00,0.00050,-0.06,0.00,"-0.44>-0.19",0.00,-0.44
85222,0,0,2.00,0.01010,0.50,500.00,500.00,,450,110,400.00,300.00,0,300.00,0.00050,-0.25,0.00,-0.44
85281.00,0.00050,-0.06,0.00,-0.44
85304,0,0,2.00,0.01010,0.50,500.00,500.00,,450,110,400.00,300.,400.00,300.00,0.00050,-0.19,0.00,-0.44
85344,0,0,2.00,0.01010,0.50,500.00,500.00,,.00050,-0.25,0.00,-0.44
85382,0,0,2.00,0.01010,0.50,500.00,500.00,,450,110,40000,,450,110,400.00,300.00,0.00050,-0.06,0.00,-0.44
85425,0,0,2.00,0.01010,0.50,500.00,500.01010,0.50,500.00,500.00,,450,110,400.00,300.00,0.00050,0.06,0.00,-0.44
85465,0,000,0.00050,-0.13,0.00,-0.44
85505,0,0,2.00,0.01010,0.50,500.00,500526,0,0,2.00,0.01010,0.50,500.00,500.00,,450,110,400.00,300.00,0.00050,-0.13,0.00,-0.44
855,0.00,-0.44
85566,0,0,2.00,0.01010,0.50,500.00,500.00,,450,110,400.00,300.00,0.0005.00,0.01010,0.50,500.00,500.00,,450,110,400.00,300.00,0.00050,0.25,0.00,-0.050,0.00,0.00,-0.44
85646,0,0,2.00,0.01010,0.50,500.00,500.00,,450,110,400.00,300.00,0.000500,300.00,0.00050,0.06,0.00,-0.44
85686,0,0,2.00,0.01010,0.50,500.00,500.00,,450,11500.00,,450,110,400.00,300.00,0.00050,-0.1350,110,400.00,300.00,0.00050,-0.13,0.00,-0.44
85767,0,0,2.00,0.01010,0.50,500.00,500.00,,45,500.00,500.00,,450,110,400.00,300.00,0.00050,-0.13,0.00,-0.44
85807,0,0,2.00,0.,400.00,300.00,0.00050,0.13,0.00,-0.44
85848,0,0,2.00,0.01010,0.50,500.00,500.0,0.01010,0.50,500.00,500.00,,450,110,400.00,300.00,0.00050,0.06,0.00,-0.44
85888,0,0,2.00,044
85908,0,0,2.00,0.01010,0.50,500.00,500.00,,450,110,400.00,300.00,0.00050,-0.06,,110,400.00,300.00,0.00050,-0.19,0.00,-0.44
85968,0,0,2.0.19,0.00,-0.44
85988,0,0,2.00,0.01010,0.50,500.00,500.00,,450,110,400.00,300.00,0.00050,-0.00.00,0.00050,-0.19,0.00,-0.44
86029,0,0,2.00,0.01010,0.50,500.00,500.00,,450,110,400,-0.44
86069,0,0,2.00,0.01010,0.50,500.00,500.00,,450,110,400.00,300.00,0.00400.00,300.00,0.00050,-0.13,0.00,-0.44
86109,0,0,2.00,0.01010,0.50,500.00,500.00,,450,110,400,,450,110,400.00,300.00,0.00050,-0.13,0.00,-0.44
86150,0,0,2.00,0.01010,0.50,52.00,0.01010,0.50,500.00,500.00,,450,110,400.00,3.50,500.00,500.00,,450,110,400.00,300.00,0.00050,0.00,0.00,-0.44
86230,0,0,2.00,0.01010,0.50,0,0,2.00,0.01010,0.50,500.00,500.00,,450,110,400.00,300.00,0.00050,0.06,0.00,-0.4,500.00,,450,110,400.00,300.00,0.00050,0.06,0.00,-0.44
86310,0,0,2.00,0.0.44
86331,0,0,2.00,0.01010,0.50,500.00,500.00,,450,110,400.00,300.00,0.00050,0.13,0.00,-0.,-0.19,0.00,-0.44
86371,0,0,2.00,0.01010,0.50,500.00,500.00,,450,110,400.00,300.00,,500.00,500.00,,450,110,400.00,300.00,0.00050,0.00,0.00,00.00,0.00050,-0.19,0.00,-0.44
86451,0,0,2.00,0.01010,0.50,500.00,500.00,,450,110,400.00,30fc,400.00,300.00,0.00050,0.06,0.00,-0.44
86492,0,0,2.00,0.01010,0.50,500.00,500.00,0.00050,0.31,0.00,-0.44
86532,0,0,2.00,0.01010,0.50,500.00,500.00,,450,110,40000,,450,110,400.00,300.00,0.00050,0.06,0.00,-0.44
86572,0,0,2.00,0.01010,0.50,500.00,500.001010,0.50,500.00,500.00,,450,110,400.00,300.00,0.00050,0.13,0.00,-0.44
86613,0,-0.44
86653,0,0,2.00,0.01010,0.50,500.00,500.00,,450,f3,0,0,2.00,0.01010,0.50,500.00,500.00,,450,110,400.00,300.00,0.00050,0.06,0.00,-0.44
86693,0.00,-0.44
86714,0,0,2.00,0.01010,0.50,500.00,500.00,,450,110,400.00,300.00,0.00050,g0,0.01010,0.50,500.00,500.00,,450,110,400.00,300.00,0.00050,-0.25,0.00,-0.40,-0.06,0.00,-0.44
86795,0,0,2.00,0.01010,0.50,500.00,500.00,,450,110,400.00,300.00,0.0005000,300.00,0.00050,-0.06,0.00,-0.44
86835,0,0,2.00,0.01010,0.50,500.00,500.00,,450,17,0,0,2.00,0.01010,0.50,500.00,500.00,,450,110,400.00,300.00,0.0450,110,400.00,300.00,0.00050,0.19,0.00,-0.44
86918,0,0,2.00,0.01010,0.50,500.00,500.00,,450,500.00,500.00,,450,110,400.00,300.00,0.00050,-0.13,0.00,-0.44
86959,0,0,2.00,010,400.00,300.00,0.00050,0.00,0.00,-0.44
87000,0,0,2.00,0.01010,0.50,500.00,5000,0.01010,0.50,500.00,500.00,,450,110,400.00,300.00,0.00050,-0.06,0.00,-0.44
87037,0,0,2.00-0.44
87060,0,0,2.00,0.01010,0.50,500.00,500.00,,450,110,400.00,300.00,0.00050,0.13,e0,110,400.00,300.00,0.00050,0.06,0.00,-0.44
87121,0,0,2.0.13,0.00,-0.44
87138,0,0,2.00,0.01010,0.50,500.00,500.00,,450,110,400.00,300.00,0.00050,0.30.00,0.00050,0.00,0.00,-0.44
87182,0,0,2.00,0.01010,0.50,500.00,500.00,,450,110,400,-0.44
87222,0,0,2.00,0.01010,0.50,500.00,500.00,,450,110,400.00,300.00,0.000500.00,300.00,0.00050,-0.06,0.00,-0.44
87262,0,0,2.00,0.01010,0.50,500.00,500.00,,450,110,40,,450,110,400.00,300.00,0.00050,-0.13,0.00,-0.44
87302,0,0,2.00,0.01010,0.50,50000,0.01010,0.50,500.00,500.00,,450,110,400.00,300,500.00,500.00,,450,110,400.00,300.00,0.00050,0.06,0.00,-0.44
87383,0,0,2.00,0.01010,0.50,50,0,2.00,0.01010,0.50,500.00,500.00,,450,110,400.00,300.00,0.00050,-0.13,0.00,-0.4400.00,,450,110,400.00,300.00,0.00050,0.06,0.00,-0.44
87463,0,0,2.00,0.01.44
87483,0,0,2.00,0.01010,0.50,500.00,500.00,,450,110,400.00,300.00,0.00050,-0.06,0.00,-0.,0.13,0.00,-0.44
87523,0,0,2.00,0.01010,0.50,500.00,500.00,,450,110,400.00,300.00,u0.00,500.00,,450,110,400.00,300.00,0.00050,0.37,0.00,-0.00,0.00050,-0.06,0.00,-0.44
87604,0,0,2.00,0.01010,0.50,500.00,500.00,,450,110,400.00,300.0,400.00,300.00,0.00050,-0.25,0.00,-0.44
87644,0,0,2.00,0.01010,0.50,500.00,500.00,,00050,0.00,0.00,-0.44
87684,0,0,2.00,0.01010,0.50,500.00,500.00,,450,110,400.0,,450,110,400.00,300.00,0.00050,0.06,0.00,-0.44
87724,0,0,2.00,0.01010,0.50,500.00,500.00,,0,0.50,500.00,500.00,,450,110,400.00,300.00,0.00050,0.06,0.00,-0.44
87765,0,0,2.0.44
87805,0,0,2.00,0.01010,0.50,500.00,500.00,,450,0,0,2.00,0.01010,0.50,500.00,500.00,,450,110,400.00,300.00,0.00050,-0.19,0.00,-0.44
87845,0.00,-0.44
87865,0,0,2.00,0.01010,0.50,500.00,500.00,,450,110,400.00,300.00,0.00050,.01010,0.50,500.00,500.00,,450,110,400.00,300.00,0.00050,-0.13,0.00,"-0.44>gx",0.00,-0.44
87946,0,0,2.00,0.01010,0.50,500.00,500.00,,450,110,400.00,300.00,0.00050,300.00,0.00050,-0.19,0.00,-0.44
87986,0,0,2.00,0.01010,0.50,500.00,500.00,,450,110,,0,2.00,0.01010,0.50,500.00,500.00,,450,110,400.00,300.00,0.0005fc,400.00,300.00,0.00050,-0.06,0.00,-0.44
88067,0,0,2.00,0.01010,0.50,500.00,500.00,,450,f00.00,500.00,,450,110,400.00,300.00,0.00050,-0.19,0.00,-0.44
88107,0,0,2.00,400.00,300.00,0.00050,0.00,0.00,-0.44
88147,0,0,2.00,0.01010,0.50,500.00,500.000.01010,0.50,500.00,500.00,,450,110,400.00,300.00,0.00050,0.13,0.00,-0.44
88188,0,0,2.00,0.4
88207,0,0,2.00,0.01010,0.50,500.00,500.00,,450,110,400.00,300.00,0.00050,-0.06,0.00050,0.00,0.00,-0.44
88268,0,0,2.00,0.01010,0.50,,0.00,-0.44
88288,0,0,2.00,0.01010,0.50,500.00,500.00,,450,110,400.00,300.00,0.00050,-0.06,00,0.00050,0.31,0.00,-0.44
88329,0,0,2.00,0.01010,0.50,500.00,500.00,,450,110,400.0
88369,0,0,2.00,0.01010,0.50,500.00,500.00,,450,110,400.00,300.00,0.00050,.00,300.00,0.00050,0.06,0.00,-0.44
88409,0,0,2.00,0.01010,0.50,500.00,500.00,,450,110,400.0fpd,110,400.00,300.00,0.00050,0.06,0.00,-0.44
88449,0,0,2.00,0.01010,0.50,0.00,-0.44
88490,0,0,2.00,0.01010,0.50,500.00,500.00,,450,110,40,500.00,500.00,,450,110,400.00,300.00,0.00050,0.00,0.00,-0.44
88530,0,0,2.00,0.01010,0.50,5,0,2.00,0.01010,0.50,500.00,500.00,,450,110,400.00,300.00,0.00050,0.06,0.00,"-0.44>.00",,450,110,400.00,300.00,0.00050,0.00,0.00,-0.44
88611,0,0,2.00,0.01014
88631,0,0,2.00,0.01010,0.50,500.00,500.00,,450,110,400.00,300.00,0.00050,0.00,0.00,-0.44>,0.00,-0.44
88671,0,0,2.00,0.01010,0.50,500.00,500.00,,450,110,400.00,300.00,000.00,300.00,0.00050,-0.06,0.00,-0.44
88733,00,0.00050,-0.13,0.00,-0.44
88754,0,0,2.00,0.01010,0.50,500.00,500.00,,450,110,400.00,300.0010,400.00,300.00,0.00050,-0.13,0.00,-0.44
88792,0,0,2.00,0.01010,0.50,500.00,500.00,,fp050,0.06,0.00,-0.44
88834,0,0,2.00,0.01010,0.50,500.00,500.00,,450,110,400.00,450,110,400.00,300.00,0.00050,-0.37,0.00,-0.44
88875,0,0,2.00,0.01010,0.50,500.00,500.00,,f0,0.50,500.00,500.00,,450,110,400.00,300.00,0.00050,0.31,0.00,-0.44
88916,0,0,0.00050,0.06,0.00,-0.44
88957,0,0,2.00,0.01010,0.50,500.00,500.00,0,0,2.00,0.01010,0.50,500.00,500.00,,450,110,400.00,300.00,0.00050,-0.06,0.00,-0.44
88995,0.00,-0.44
89018,0,0,2.00,0.01010,0.50,500.00,500.00,,450,110,400.00,300.00,0.00050,0.01010,0.50,500.00,500.00,,450,110,400.00,300.00,0.00050,0.00,0.00,"-0.44>gx",0.00,-0.44
89095,0,0,2.00,0.01010,0.50,500.00,500.00,,450,110,400.00,300.00,0.00050,300.00,0.00050,-0.06,0.00,-0.44
89139,0,0,2.00,0.01010,0.50,500.00,500.00,,450,110,0.00,,450,110,400.00,300.00,0.00050,-0.06,110,400.00,300.00,0.00050,0.06,0.00,-0.44
89219,0,0,2.00,0.01010,0.50,500.00,500.00,,450,fc.00,500.00,,450,110,400.00,300.00,0.00050,0.13,0.00,-0.44
89260,0,0,2.00,0.01010400.00,300.00,0.00050,-0.13,0.00,-0.44
89299,0,0,2.00,0.01010,0.50,500.00,500.00,,010,0.50,500.00,500.00,,450,110,400.00,300.00,0.00050,0.13,0.00,-0.44
89360,0,0,2.00,0.01010,0.50,500.00,500.00,,450,110,400.00,300.00,0.00050,0.13,0.00110,400.00,300.00,0.00050,0.13,0.00,-0.44
89420,0,0,2.00,0.00,-0.44
89441,0,0,2.00,0.01010,0.50,500.00,500.00,,450,110,400.00,300.00,0.00050,-0.06,u2,-0.06,0.00,-0.44
89481,0,0,2.00,0.01010,0.50,500.00,500.00,,450,110,400.00,-0.44
89521,0,0,2.00,0.01010,0.50,500.00,500.00,,450,110,400.00,300.00,0.00050,g0,300.00,0.00050,-0.06,0.00,-0.44
89561,0,0,2.00,0.01010,0.50,500.00,500.00,,450,110,400.00pd,110,400.00,300.00,0.00050,0.06,0.00,-0.44
89602,0,0,2.00,0.01010,0.50,500.00,0.00,-0.44
89642,0,0,2.00,0.01010,0.50,500.00,500.00,,450,110,40000.00,500.00,,450,110,400.00,300.00,0.00050,-0.19,0.00,-0.44
89682,0,0,2.00,0.01010,0.50,500,2.00,0.01010,0.50,500.00,500.00,,450,110,400.00,300.00,0.00050,-0.06,0.00,"-0.44>0.00",,450,110,400.00,300.00,0.00050,-0.25,0.00,-0.44
89763,0,0,2.00,0.0144
89783,0,0,2.00,0.01010,0.50,500.00,500.00,,450,110,400.00,300.00,0.00050,0.06,0.00,-0.44x,0.00,-0.44
89823,0,0,2.00,0.01010,0.50,500.00,500.00,,450,110,400.00,300.00,400.00,300.00,0.00050,-0.19,0.00,-0.44
89880.00,0.00050,-0.06,0.00,-0.44
89904,0,0,2.00,0.01010,0.50,500.00,500.00,,450,110,400.00,300c,400.00,300.00,0.00050,0.19,0.00,-0.44
89944,0,0,2.00,0.01010,0.50,500.00,500.00,,00050,0.00,0.00,-0.44
89984,0,0,2.00,0.01010,0.50,500.00,500.00,,450,110,400.0,,450,110,400.00,300.00,0.00050,-0.13,0.00,-0.44
90024,0,0,2.00,0.01010,0.50,500.00,500.00,10,0.50,500.00,500.00,,450,110,400.00,300.00,0.00050,0.06,0.00,-0.44
90064,0,0,0.00050,0.06,0.00,-0.44
90105,0,0,2.00,0.01010,0.50,500.00,500.00,,0,2.00,0.01010,0.50,500.00,500.00,,450,110,400.00,300.00,0.00050,0.06,0.00,-0.44
90145,0,000,-0.44
90165,0,0,2.00,0.01010,0.50,500.00,500.00,,450,110,400.00,300.00,0.00050,-01010,0.50,500.00,500.00,,450,110,400.00,300.00,0.00050,0.13,0.00,-0.44
0.00,0.00,-0.44
90245,0,0,2.00,0.01010,0.50,500.00,500.00,,450,110,400.00,300.00,0.00050,-,0.00050,0.06,0.00,-0.44
90286,0,0,2.00,0.01010,0.50,500.00,500.00,,450,110,00,,450,110,400.00,300.00,0.00050,0.06,0110,400.00,300.00,0.00050,0.00,0.00,-0.44
90367,0,0,2.00,0.01010,0.50,500.00,500.00,,450,11,500.00,,450,110,400.00,300.00,0.00050,-0.13,0.00,-0.44
90407,0,0,2.00,0.01010,0.00,300.00,0.00050,-0.06,0.00,-0.44
90447,0,0,2.00,0.01010,0.50,500.00,500.00,,fpd10,0.50,500.00,500.00,,450,110,400.00,300.00,0.00050,0.00,0.00,-0.44
90488,0,0,2.00,0.01010<90508,0,0,2.00,0.01010,0.50,500.00,500.00,,450,110,400.00,300.00,0.00050,-0.19,0.00,0,400.00,300.00,0.00050,0.00,0.00,-0.44
90569,0,0,2.00,0.010.00,-0.44
90589,0,0,2.00,0.01010,0.50,500.00,500.00,,450,110,400.00,300.00,0.00050,-0.13,0.,-0.06,0.00,-0.44
90630,0,0,2.00,0.01010,0.50,500.00,500.00,,450,110,400.00,dr44
90671,0,0,2.00,0.01010,0.50,500.00,500.00,,450,110,400.00,300.00,0.00050,-,300.00,0.00050,0.31,0.00,-0.44
90712,0,0,2.00,0.01010,0.50,500.00,500.00,,450,110,400.00,450,110,400.00,300.00,0.00050,0.00,0.00,-0.44
90750,0,0,2.00,0.01010,0.50,500.00,501010,0.50,500.00,500.00,,450,110,400.00,300.00,u2.00,500.00,,450,110,400.00,300.00,0.00050,0.00,0.00,-0.44
90834,0,0,2.00,0.01010,0.50,500.02.00,0.01010,0.50,500.00,500.00,,450,110,400.00,300.00,0.00050,-0.06,0.00,-0.44
0,,450,110,400.00,300.00,0.00050,0.00,0.00,-0.44
90935,0,0,2.00,0.01010,0.50,500.00,500.00,,450,110,400.00,300.00,0.00050,0.25,0.00,-0.44
06,0.00,-0.44
90975,0,0,2.00,0.01010,0.50,500.00,500.00,,450,110,400.00,300.00,0.0000.00,,450,110,400.00,300.00,0.00050,0.00,0.00,-0.44
0.00050,0.19,0.00,-0.44
91052,0,0,2.00,0.01010,0.50,500.00,500.00,,450,110,400.00,300.00,0c,300.00,0.00050,0.00,0.00,-0.44
91096,0,0,2.00,0.01010,0.50,500.00,500.00,,450x,0.00,-0.44
91136,0,0,2.00,0.01010,0.50,500.00,500.00,,450,110,400.00,3450,110,400.00,300.00,0.00050,0.13,0.00,-0.44
91176,0,0,2.00,0.01010,0.50,500.00,500.00,,45,500.00,500.00,,450,110,400.00,300.00,0.00050,0.00,0.00,-0.44
91254,0,0,2.00,0.01010,0.50,500.00,500.00,,450,110,dc00,0.01010,0.50,500.00,500.00,,450,110,400.00,300.00,0.00050,0.13,0.00,-0.44
91297,0,0,2.000.44
91317,0,0,2.00,0.01010,0.50,500.00,500.00,,450,110,400.00,300.00,0.00050,-0.06,e,0.50,500.00,500.00,,450,110,400.00,300.00,0.00050,-0.13,0.00,-0.44
91379,0.00,-0.44
91398,0,0,2.00,0.01010,0.50,500.00,500.00,,450,110,400.00,300.00,0.00050,0.13,00,0.00050,0.13,0.00,-0.44
91438,0,0,2.00,0.01010,0.50,500.00,500.00,,450,110,400.0.01010,0.50,500.00,500.00,,450,110,400.00,300.00,0.00050,-0.0,300.00,0.00050,-0.19,0.00,-0.44
91518,0,0,2.00,0.01010,0.50,500.00,500.00,,450,110,.00,,450,110,400.00,300.00,0.00050,-0.06,0.00,-0.44
91558,0,0,2.00,0.01010,0.50,300.00,0.00050,0.13,0.00,-0.44
91599,0,0,2.00,0.01010,0.50,500.00,500.00,,450,0,500.00,500.00,,450,110,400.00,300.00,0.00050,0.00,0.00,-0.44
91639,0,0,2.00,0.01010,0.50,0,0,2.00,0.01010,0.50,500.00,500.00,,450,110,400.00,300.00,0.00050,0.19,0.00,-0.44>.00,300.00,0.00050,0.19,0.00,-0.44
91719,0,0,2.00,0.01010,0.50,-0.44
91739,0,0,2.00,0.01010,0.50,500.00,500.00,,450,110,400.00,300.00,0.00050,0.06,0.00,-00,-0.19,0.00,-0.44
91780,0,0,2.00,0.01010,0.50,500.00,500.00,,450,110,400.00,300.0091820,0,0,2.00,0.01010,0.50,500.00,500.00,,450,110,400.00,300.00,0.00050,0.06,er.00,0.00050,0.06,0.00,-0.44
91860,0,0,2.00,0.01010,0.50,500.00,500.00,,450,110,400.00,300.0110,400.00,300.00,0.00050,0.31,0.00,-0.44
91901,0,0,2.00,0.01010,0.50,500.00,500.00,,fp50,500.00,500.00,,450,110,400.00,300.00,0.000500,,450,110,400.00,300.00,0.00050,0.06,0.00,-0.44
91981,0,0,2.00,0.01010,0.50,500.00,500.00010,0.50,500.00,500.00,,450,110,400.00,300.00,0.00050,-0.06,0.00,-0.44
92021,0,050,110,400.00,300.00,0.00050,-0.19,0.00,-0.44
92062,0,0,2.00,0.01010,0.50,50,0,0,2.00,0.01010,0.50,500.00,500.00,,450,110,400.00,300.00,0.00050,0.00,0.00,-0.44
92102,0.00,-0.44
92122,0,0,2.00,0.01010,0.50,500.00,500.00,,450,110,400.00,300.00,0.00050,fpd,110,400.00,300.00,0.00050,0.00,0.00,-0.44
92182,0,-0.13,0.00,-0.44
92202,0,0,2.00,0.01010,0.50,500.00,500.00,,450,110,400.00,300.00,0.00050,0,300.00,0.00050,-0.13,0.00,-0.44
92242,0,0,2.00,0.01010,0.50,500.00,500.00,,450,115,0.00,-0.44
92283,0,0,2.00,0.01010,0.50,500.00,500.00,,450,110,400.00,300.00,110,400.00,300.00,0.00050,-0.06,0.00,-0.44
92323,0,0,2.00,0.01010,0.50,500.00,500.00,,450,.00,500.00,,450,110,400.00,300.00,0.00050,0.06,0.00,-0.44
92364,0,0,2.00,0.0101004,0,0,2.00,0.01010,0.50,500.00,500.00,,450,110,400.01010,0.50,500.00,500.00,,450,110,400.00,300.00,0.00050,-0.06,0.00,-0.44
92444,0,0,2.00,0.04
92464,0,0,2.00,0.01010,0.50,500.00,500.00,,450,110,400.00,300.00,0.00050,0.13,0.0,500.00,500.00,,450,110,400.00,300.00,0.00050,0.06,0.00,-0.44
92525,0,0.00,-0.44
92545,0,0,2.00,0.01010,0.50,500.00,500.00,,450,110,400.00,300.00,0.00050,0.13,02,-0.06,0.00,-0.44
92585,0,0,2.00,0.01010,0.50,500.00,500.00,,450,110,400.00,d10,0.50,500.00,500.00,,450,110,400.00,300.00,0.00050,0.06,00,300.00,0.00050,-0.37,0.00,-0.44
92666,0,0,2.00,0.01010,0.50,500.00,500.00,,450,110,400.0pd,110,400.00,300.00,0.00050,-0.06,0.00,-0.44
92706,0,0,2.00,0.01010,0.50,500.000.00,0.00050,0.00,0.00,-0.44
92747,0,0,2.00,0.01010,0.50,500.00,500.00,,450,11.00,500.00,,450,110,400.00,300.00,0.00050,-0.06,0.00,-0.44
92788,0,0,2.00,0.01010,0.50,500.2.00,0.01010,0.50,500.00,500.00,,450,110,400.00,300.00,0.00050,-0.13,0.00,-0.44
9,0.00,-0.44
92870,0,0,2.00,0.01010,0.50,500.00,500.000.44
92891,0,0,2.00,0.01010,0.50,500.00,500.00,,450,110,400.00,300.00,0.00050,-0.13,0.00,-00,0.13,0.00,-0.44
92931,0,0,2.00,0.01010,0.50,500.00,500.00,,450,110,400.00,300.00,971,0,0,2.00,0.01010,0.50,500.00,500.00,,450,110,400.00,300.00,0.00050,0.06,00,0.00050,0.25,0.00,-0.44
93009,0,0,2.00,0.01010,0.50,500.00,500.00,,450,110,400.00,300.00,0,400.00,300.00,0.00050,0.13,0.00,-0.44
93093,0,0,2.00,0.01010,0.50,500.00,500.00,,450,110,400.00,300.00,,450,110,400.00,300.00,0.00050,0.13,0.00,-0.44
93133,0,0,2.00,0.01010,0.50,500.00,500.00,,0,0.50,500.00,500.00,,450,110,400.00,300.00,0.00050,0.06,0.00,-0.44
93173,0,0,110,400.00,300.00,0.00050,0.00,0.00,-0.44
93210,0,0,2.00,0.01010,0.50,500.00,.00,0.01010,0.50,500.00,500.00,,450,110,400.00,300.00,0.00050,-0.13,0.00,-0.44
93254,0,0,2.,-0.44
93274,0,0,2.00,0.01010,0.50,500.00,500.00,,450,110,400.00,300.00,0.00050,0.20,0.00050,-0.06,0.00,-0.44
93335,0,0,2.00,0.06,0.00,-0.44
93355,0,0,2.00,0.01010,0.50,500.00,500.00,,450,110,400.00,300.00,0.00050,300.00,0.00050,-0.06,0.00,-0.44
93395,0,0,2.00,0.01010,0.50,500.00,500.00,,450,110,0.00,-0.44
93435,0,0,2.00,0.01010,0.50,500.00,500.00,,450,110,400.00,300.00,,400.00,300.00,0.00050,0.13,0.00,-0.44
93475,0,0,2.00,0.01010,0.50,500.00,500.00,,450,110,d00.00,,450,110,400.00,300.00,0.00050,-0.19,0.00,-0.44
93515,0,0,2.00,0.01010,0.50.13,0.00,-0.44
93556,0,0,2.00,0.01010,0.50,500.00,500.00,,450,1110,0.50,500.00,500.00,,450,110,400.00,300.00,0.00050,0.19,0.00,-0.44
93596,0,0,2.00,0.0101093616,0,0,2.00,0.01010,0.50,500.00,500.00,,450,110,400.00,300.00,0.00050,0.13,0.00,.00,500.00,,450,110,400.00,300.00,0.00050,0.06,0.00,-0.44
93676,0,0,-0.44
93696,0,0,2.00,0.01010,0.50,500.00,500.00,,450,110,400.00,300.00,0.00050,0.06,0.00,050,-0.06,0.00,-0.44
93737,0,0,2.00,0.01010,0.50,500.00,500.00,,450,110,400.00,300.0,400.00,300.00,0.00050,-0.13,0.00,-0.44
300.00,0.00050,0.00,0.00,-0.44
93817,0,0,2.00,0.01010,0.50,500.00,500.00,,450,110,400.00,30,110,400.00,300.00,0.00050,0.00,0.00,-0.44
93857,0,0,2.00,0.01010,0.50,500.00,0.00050,0.19,0.00,-0.44
93898,0,0,2.00,0.01010,0.50,500.00,500.00,,450,110,400.00,,450,110,400.00,300.00,0.00050,-0.06,0.00,-0.44
93938,0,0,2.00,0.01010,0.50,500.00,5000.01010,0.50,500.00,500.00,,450,110,400.00,300.00,0.00050,0.00,0.00,-0.44
93978,00.00,0.00050,-0.06,0.00,-0.44
94018,0,0,2.00,0.01010,0.50,500.00,<94039,0,0,2.00,0.01010,0.50,500.00,500.00,,450,110,400.00,300.00,0.00050,0.25,0.00,-0.44
906,0.00,-0.44
94079,0,0,2.00,0.01010,0.50,500.00,500.00,,450,110,400.00,300.00,0.00,0,2.00,0.01010,0.50,500.00,500.00,,450,110,400.00,300.00,0.00050,-0.06,0.00,0.00050,-0.06,0.00,-0.44
94160,0,0,2.00,0.01010,0.50,500.00,500.00,,450,110,400.00,300.00,dc,300.00,0.00050,0.00,0.00,-0.44
94200,0,0,2.00,0.01010,0.50,500.00,500.00,,4594240,0,0,2.00,0.01010,0.50,500.00,500.00,,450,110,400.00,300.00,450,110,400.00,300.00,0.00050,-0.06,0.00,-0.44
94280,0,0,2.00,0.01010,0.50,500.00,500.00,,fp0.50,500.00,500.00,,450,110,400.00,300.00,0.00050,-0.19,0.00,-0.44
94320,0,0,110,400.00,300.00,0.00050,0.13,0.00,-0.44
94361,0,0,2.00,0.01010,0.50,500.00,2.00,0.01010,0.50,500.00,500.00,,450,110,400.00,300.00,0.00050,-0.19,0.00,-0.44
94402,0,0,20,-0.44
94422,0,0,2.00,0.01010,0.50,500.00,500.00,,450,110,400.00,300.00,0.00050,-00.00,0.00050,0.00,0.00,-0.44
94482,0,0,2.00,0.00,0.19,0.00,-0.44
94502,0,0,2.00,0.01010,0.50,500.00,500.00,,450,110,400.00,300.00,0.00050,,300.00,0.00050,-0.13,0.00,-0.44
94543,0,0,2.00,0.01010,0.50,500.00,500.00,,450,110,0.00,-0.44
94583,0,0,2.00,0.01010,0.50,500.00,500.00,,450,110,400.00,300.00,u110,400.00,300.00,0.00050,0.13,0.00,-0.44
94624,0,0,2.00,0.01010,0.50,500.00,500.00,,450,11,500.00,,450,110,400.00,300.00,0.00050,0.25,0.00,-0.44
94664,0,0,2.00,0.01010,0.0.13,0.00,-0.44
94704,0,0,2.00,0.01010,0.50,500.00,500.00,,450,110,0.50,500.00,500.00,,450,110,400.00,300.00,0.00050,0.06,0.00,-0.44
94745,0,0,2.00,0.01010,<94765,0,0,2.00,0.01010,0.50,500.00,500.00,,450,110,400.00,300.00,0.00050,0.13,0.00,R0.00,500.00,,450,110,400.00,300.00,0.00050,0.25,0.00,-0.44
94826,0,0,2.0,-0.44
94846,0,0,2.00,0.01010,0.50,500.00,500.00,,450,110,400.00,300.00,0.00050,0.19,0.00,R0050,0.06,0.00,-0.44
94887,0,0,2.00,0.01010,0.50,500.00,500.00,,450,110,400.00,300.0,400.00,300.00,0.00050,0.13,0.00,-0.44
300.00,0.00050,0.00,0.00,-0.44
94966,0,0,2.00,0.01010,0.50,500.00,500.00,,450,110,400.00,30,110,400.00,300.00,0.00050,-0.06,0.00,-0.44
95008,0,0,2.00,0.01010,0.50,500.00,0.00050,-0.13,0.00,-0.44
95049,0,0,2.00,0.01010,0.50,500.00,500.00,,450,110,500.00,,450,110,400.00,300.00,0.00050,0.00,0.00,-0.44
95090,0,0,2.00,0.01010,0.50,500.00,50,0.01010,0.50,500.00,500.00,,450,110,400.00,300.00,0.00050,0.13,0.00,-0.44
95130300.00,0.00050,0.19,0.00,-0.44
95168,0,0,2.00,0.01010,0.50,500.00,<95191,0,0,2.00,0.01010,0.50,500.00,500.00,,450,110,400.00,300.00,0.00050,0.00,0.00,-0.44
99,0.00,-0.44
95231,0,0,2.00,0.01010,0.50,500.00,500.00,,450,110,400.00,300.00,0.000,2.00,0.01010,0.50,500.00,500.00,,450,110,400.00,300.00,0.00050,0.06,0.00,-00050,0.00,0.00,-0.44
95312,0,0,2.00,0.01010,0.50,500.00,500.00,,450,110,400.00,300.00,0.000.00,300.00,0.00050,0.00,0.00,-0.44
95352,0,0,2.00,0.01010,0.50,500.00,500.00,,450,0,500.00,,450,110,400.00,300.00,0.00050,-0.450,110,400.00,300.00,0.00050,0.13,0.00,-0.44
95433,0,0,2.00,0.01010,0.50,500.00,500.00,,45,500.00,500.00,,450,110,400.00,300.00,0.00050,-0.06,0.00,-0.44
95471,0,0,2.00,0.,400.00,300.00,0.00050,0.06,0.00,-0.44
95513,0,0,2.00,0.01010,0.50,500.00,500.00.01010,0.50,500.00,500.00,,450,110,400.00,300.00,0.00050,-0.06,0.00,-0.44
95553,0,0,2.00,0.44
95573,0,0,2.00,0.01010,0.50,500.00,500.00,,450,110,400.00,300.00,0.00050,-0.13,er0,110,400.00,300.00,0.00050,-0.06,0.00,-0.44
95634,0,0,2..13,0.00,-0.44
95654,0,0,2.00,0.01010,0.50,500.00,500.00,,450,110,400.00,300.00,0.00050,0.10.00,0.00050,-0.06,0.00,-0.44
95694,0,0,2.00,0.01010,0.50,500.00,500.00,,450,110,4000,-0.44
95734,0,0,2.00,0.01010,0.50,500.00,500.00,,450,110,400.00,300.00,0.00,300.00,0.00050,0.25,0.00,-0.44
95775,0,0,2.00,0.01010,0.50,500.00,500.00,,450,110,400,,450,110,400.00,300.00,0.00050,-0.06,0.00,-0.44
