millis,switch_on,fp,P,D,I,IMAX,max_rate,flip_pulse,climb_ms,rate_climb,rate_rec,u2_max,gyro_x,error,roll
117288,0,0,2.00,0.01010,0.50,500.00,500.00,,450,110,400.00,450,110,400.00,300.00,0.00050,0.06,0.00,-0.44
117330,0,0,2.00,0.01010,0.50,500.00,.00,0.00050,-0.06,0.00,-0.44
117371,0,0,2.00,0.01010,0.50,500.00,500.00,,450,100.00,500.00,,450,110,400.00,300.00,0.00050,-0.25,0.00,-0.44
117412,0,0,2.00,0.01010,0.50,50,0,2.00,0.01010,0.50,500.00,500.00,,450,110,400.00,300.00,0.00050,-0.06,0.00,-0.44,0.00,-0.44
117492,0,0,2.00,0.01010,0.50,500.00,5,-0.44
117512,0,0,2.00,0.01010,0.50,500.00,500.00,,450,110,400.00,300.00,0.00050,-0.19,0.000.00050,0.06,0.00,-0.44
117553,0,0,2.00,0.01010,0.50,500.00,500.00,,450,110,400.00,.44
117594,0,0,2.00,0.01010,0.50,500.00,500.00,,450,110,400.00,300.00,0.00050,gx00,300.00,0.00050,0.00,0.00,-0.44
117634,0,0,2.00,0.01010,0.50,500.00,500.00,,450,110,400.0fpd,110,400.00,300.00,0.00050,0.00,0.00,-0.44
117674,0,0,2.00,0.01010,0.50,0.00,-0.44
117715,0,0,2.00,0.01010,0.50,500.00,500.00,,450,110,50,500.00,500.00,,450,110,400.00,300.00,0.00050,-0.25,0.00,-0.44
117755,0,0,2.00,0.01010,0.7775,0,0,2.00,0.01010,0.50,500.00,500.00,,450,110,400.00,300.00,0.00050,0.13,0.00,-0.00,500.00,,450,110,400.00,300.00,0.00050,-0.06,0.00,-0.44
117836,0,0,200,-0.44
117856,0,0,2.00,0.01010,0.50,500.00,500.00,,450,110,400.00,300.00,0.00050,-0.06,0.2,0.00,0.00,-0.44
117897,0,0,2.00,0.01010,0.50,500.00,500.00,,450,110,400.00,d450,110,400.00,300.00,0.00050,0.00,0.00,-0400.00,300.00,0.00050,-0.13,0.00,-0.44
117980,0,0,2.00,0.01010,0.50,500.00,500.00,,450,110,.00,,450,110,400.00,300.00,0.00050,-0.06,0.00,-0.44
118021,0,0,2.00,0.01010,0.5000,300.00,0.00050,-0.19,0.00,-0.44
118063,0,0,2.00,0.01010,0.50,500.00,500.00,,fpd10,0.50,500.00,500.00,,450,110,400.00,300.00,0.00050,0.13,0.00,-0.44
118100,0,0,2.00,0.0101<118124,0,0,2.00,0.01010,0.50,500.00,500.00,,450,110,400.00,300.00,0.00050,-0.31,0.00c,400.00,300.00,0.00050,0.06,0.00,-0.44
118185,0,0,2.00,,0.00,-0.44
118204,0,0,2.00,0.01010,0.50,500.00,500.00,,450,110,400.00,300.00,0.00050,0.06,.00,0.00050,0.00,0.00,-0.44
118245,0,0,2.00,0.01010,0.50,500.00,500.00,,450,110,40000,-0.44
118285,0,0,2.00,0.01010,0.50,500.00,500.00,,450,110,400.00,300.00,0.0dc,300.00,0.00050,0.06,0.00,-0.44
118326,0,0,2.00,0.01010,0.50,500.00,500.00,,450,110,d500.00,,450,110,400.00,300.00,0.00050,0.06,0.00,-0.44
118366,0,0,2.00,0.01010,0.06,0,0,2.00,0.01010,0.50,500.00,500.00,,450,110,400.0.01010,0.50,500.00,500.00,,450,110,400.00,300.00,0.00050,-0.06,0.00,-0.44
118447,0,0,2.00,.44
118467,0,0,2.00,0.01010,0.50,500.00,500.00,,450,110,400.00,300.00,0.00050,-0.19,e010,0.50,500.00,500.00,,450,110,400.00,300.00,0.00050,0.13,0.00,-0.44
11-0.06,0.00,-0.44
118548,0,0,2.00,0.01010,0.50,500.00,500.00,,450,110,400.00,300.00,0.00050,r,0.00050,0.13,0.00,-0.44
118589,0,0,2.00,0.01010,0.50,500.00,500.00,,450,110,d0,2.00,0.01010,0.50,500.00,500.00,,450,110,400.00,300.00,0.00050fc,400.00,300.00,0.00050,-0.25,0.00,-0.44
118671,0,0,2.00,0.01010,0.50,500.00,500.00,,450,500.00,500.00,,450,110,400.00,300.00,0.00050,-0.19,0.00,-0.44
118713,0,0,2.00,0.10,400.00,300.00,0.00050,-0.06,0.00,-0.44
118752,0,0,2.00,0.01010,0.50,500.00,5,2.00,0.01010,0.50,500.00,500.00,,450,110,400.00,300.00,0.00050,-0.13,0.00,-0.44
118796,0,00,-0.44
118816,0,0,2.00,0.01010,0.50,500.00,500.00,,450,110,400.00,300.00,0.00050,0300.00,0.00050,-0.13,0.00,-0.44
118877,0,0,2.00,0050,-0.06,0.00,-0.44
118897,0,0,2.00,0.01010,0.50,500.00,500.00,,450,110,400.00,300.00,0.0,300.00,0.00050,0.00,0.00,-0.44
118938,0,0,2.00,0.01010,0.50,500.00,500.00,,450,0.13,0.00,-0.44
118978,0,0,2.00,0.01010,0.50,500.00,500.00,,450,110,400.00,450,110,400.00,300.00,0.00050,-0.13,0.00,-0.44
119018,0,0,2.00,0.01010,0.50,500.00,500.00,,10,0.50,500.00,500.00,,450,110,400.00,300.00,0.00050,0.19,0.00,-0.44
119059,0,0,.00,0.00050,0.25,0.00,-0.44
119099,0,0,2.00,0.01010,0.50,500.00,5019119,0,0,2.00,0.01010,0.50,500.00,500.00,,450,110,400.00,300.00,0.00050,0.13,0.00,-0.44
113,0.00,-0.44
119160,0,0,2.00,0.01010,0.50,500.00,500.00,,450,110,400.00,300.00,0.00,0,2.00,0.01010,0.50,500.00,500.00,,450,110,400.00,300.00,0.00050,-0.25,0.00,0.00050,0.00,0.00,-0.44
119241,0,0,2.00,0.01010,0.50,500.00,500.00,,450,110,400.00,300.00,u2,400.00,300.00,0.00050,-0.06,0.00,-0.44
119281,0,0,2.00,0.01010,0.50,500.00,500.00,,fpd44
119323,0,0,2.00,0.01010,0.50,500.00,500.00,,450,110,400.00,300.00,,450,110,400.00,300.00,0.00050,0.00,0.00,-0.44
119364,0,0,2.00,0.01010,0.50,500.00,500,0.01010,0.50,500.00,500.00,,450,110,400.00,300.00,0.00050,-0.19,0.00,-0.44
1194,,450,110,400.00,300.00,0.00050,-0.06,0.00,-0.44
119468,0,0,2.00,0.01010,0.50,500.00,500.00,,450,110,400.00,300.00,0.00050,0.06,0.00,"-0.44>",0.00,-0.44
119506,0,0,2.00,0.01010,0.50,500.00,500.00,,450,110,400.00,300.00,,300.00,0.00050,0.13,0.00,-0.44
119569.00,0.00050,-0.19,0.00,-0.44
119589,0,0,2.00,0.01010,0.50,500.00,500.00,,450,110,400.00,300,110,400.00,300.00,0.00050,0.19,0.00,-0.44
119630,0,0,2.00,0.01010,0.50,500.00,0.00050,-0.19,0.00,-0.44
119670,0,0,2.00,0.01010,0.50,500.00,500.00,,450,110,d0,500.00,,450,110,400.00,300.00,0.00050,0.00,0.00,-0.44
119711,0,0,2.00,0.01010,0.50,500.00.00,0.01010,0.50,500.00,500.00,,450,110,400.00,300.00,0.00050,0.13,0.00,-0.44
11,300.00,0.00050,-0.06,0.00,-0.44
119791,0,0,2.00,0.01010,0.50,544
119811,0,0,2.00,0.01010,0.50,500.00,500.00,,450,110,400.00,300.00,0.00050,0.13,0.00,-0.4,0.06,0.00,-0.44
119852,0,0,2.00,0.01010,0.50,500.00,500.00,,450,110,400.00,300.00,119892,0,0,2.00,0.01010,0.50,500.00,500.00,,450,110,400.00,300.00,0.00050,0.13,e00.00,0.00050,0.13,0.00,-0.44
119933,0,0,2.00,0.01010,0.50,500.00,500.00,,450,110,400.00,30,110,400.00,300.00,0.00050,0.06,0.00,-0.44
119973,0,0,2.00,0.01010,0.50,500.00,500.0010,0.50,500.00,500.00,,450,110,400.00,300.00,0,500.00,,450,110,400.00,300.00,0.00050,0.00,0.00,-0.44
120054,0,0,2.00,0.01010,0.50,500.00.00,0.01010,0.50,500.00,500.00,,450,110,400.00,300.00,0.00050,0.06,0.00,-0.44
120,,450,110,400.00,300.00,0.00050,-0.13,0.00,-0.44
120136,0,0,2.00,0.0101
120156,0,0,2.00,0.01010,0.50,500.00,500.00,,450,110,400.00,300.00,0.00050,0.00,0.00,-0.44>x,0.00,-0.44
120198,0,0,2.00,0.01010,0.50,500.00,500.00,,450,110,400.00,300.00,u0,500.00,500.00,,450,110,400.00,300.00,0.00050,-0.13,0.00,300.00,0.00050,-0.19,0.00,-0.44
120281,0,0,2.00,0.01010,0.50,500.00,500.00,,450,110,400.00,450,110,400.00,300.00,0.00050,-0.19,0.00,-0.44
120322,0,0,2.00,0.01010,0.50,500.000.00,0.00050,-0.13,0.00,-0.44
120360,0,0,2.00,0.01010,0.50,500.00,500.00,,450,,500.00,500.00,,450,110,400.00,300.00,0.00050,0.13,0.00,-0.44
120403,0,0,2.00,0.01010,0.50,3,0,0,2.00,0.01010,0.50,500.00,500.00,,450,110,400.00,300.00,0.00050,0.06,0.00,-0.4x,0.00,-0.44
120483,0,0,2.00,0.01010,0.50,500.00,0,-0.44
120504,0,0,2.00,0.01010,0.50,500.00,500.00,,450,110,400.00,300.00,0.00050,0.06,0.000.00050,-0.25,0.00,-0.44
120544,0,0,2.00,0.01010,0.50,500.00,500.00,,450,110,400.00,dr.44
120584,0,0,2.00,0.01010,0.50,500.00,500.00,,450,110,400.00,300.00,0.00050,gx00,300.00,0.00050,-0.13,0.00,-0.44
120625,0,0,2.00,0.01010,0.50,500.00,500.00,,450,110,400.,,450,110,400.00,300.00,0.00050,0.00,0.00,-0.44
120665,0,0,2.00,0.01010,0.50,0.00,-0.44
120706,0,0,2.00,0.01010,0.50,500.00,500.00,,450,110,dc0.50,500.00,500.00,,450,110,400.00,300.00,0.00050,0.06,0.00,-0.44
120746,0,0,2.00,0.01010,00766,0,0,2.00,0.01010,0.50,500.00,500.00,,450,110,400.00,300.00,0.00050,0.25,0.00,-.00,500.00,,450,110,400.00,300.00,0.00050,0.13,0.00,-0.44
120827,0,0,2.0,-0.44
120847,0,0,2.00,0.01010,0.50,500.00,500.00,,450,110,400.00,300.00,0.00050,0.00,0.00,.00050,0.25,0.00,-0.44
120888,0,0,2.00,0.01010,0.50,500.00,500.00,,450,110,400.00,30,110,400.00,300.00,0.00050,0.37,0.00,-0.40.00,300.00,0.00050,-0.13,0.00,-0.44
120972,0,0,2.00,0.01010,0.50,500.00,500.00,,450,110,40.00,,450,110,400.00,300.00,0.00050,0.25,0.00,-0.44
121010,0,0,2.00,0.01010,0.50,,300.00,0.00050,0.19,0.00,-0.44
121054,0,0,2.00,0.01010,0.50,500.00,500.00,,450.50,500.00,500.00,,450,110,400.00,300.00,0.00050,-0.06,0.00,-0.44
121095,0,0,2.00,0.01010,121114,0,0,2.00,0.01010,0.50,500.00,500.00,,450,110,400.00,300.00,0.00050,-0.25,0.00,110,400.00,300.00,0.00050,-0.06,0.00,-0.44
121175,0,0,2.00,,0.00,-0.44
121196,0,0,2.00,0.01010,0.50,500.00,500.00,,450,110,400.00,300.00,0.00050,0.19,.00,0.00050,-0.13,0.00,-0.44
121236,0,0,2.00,0.01010,0.50,500.00,500.00,,450,110,40.00,-0.44
121276,0,0,2.00,0.01010,0.50,500.00,500.00,,450,110,400.00,300.00,0.,400.00,300.00,0.00050,0.13,0.00,-0.44
121317,0,0,2.00,0.01010,0.50,500.00,500.00,,450,110,,500.00,,450,110,400.00,300.00,0.00050,-0.13,0.00,-0.44
121357,0,0,2.00,0.01010,1397,0,0,2.00,0.01010,0.50,500.00,500.00,,450,110,40,0.01010,0.50,500.00,500.00,,450,110,400.00,300.00,0.00050,0.25,0.00,-0.44
121438,0,0,2.00,0.44
121458,0,0,2.00,0.01010,0.50,500.00,500.00,,450,110,400.00,300.00,0.00050,0.13,10,0.50,500.00,500.00,,450,110,400.00,300.00,0.00050,-0.06,0.00,-0.44
12-0.13,0.00,-0.44
121540,0,0,2.00,0.01010,0.50,500.00,500.00,,450,110,400.00,300.00,0.00050,dr,0.00050,-0.06,0.00,-0.44
121581,0,0,2.00,0.01010,0.50,500.00,500.00,,450,110,0,2.00,0.01010,0.50,500.00,500.00,,450,110,400.00,300.00,0.0005,110,400.00,300.00,0.00050,0.00,0.00,-0.44
121662,0,0,2.00,0.01010,0.50,500.00,500.00,,450,500.00,500.00,,450,110,400.00,300.00,0.00050,0.06,0.00,-0.44
121705,0,0,2.00,0.00,400.00,300.00,0.00050,-0.06,0.00,-0.44
121746,0,0,2.00,0.01010,0.50,500.00,502.00,0.01010,0.50,500.00,500.00,,450,110,400.00,300.00,0.00050,0.00,0.00,-0.44
121787,0,0,2,-0.44
121807,0,0,2.00,0.01010,0.50,500.00,500.00,,450,110,400.00,300.00,0.00050,-0,450,110,400.00,300.00,0.00050,0.00,0.00,-0.44
121867050,-0.25,0.00,-0.44
121888,0,0,2.00,0.01010,0.50,500.00,500.00,,450,110,400.00,300.00,0.0000.00,300.00,0.00050,-0.06,0.00,-0.44
121928,0,0,2.00,0.01010,0.50,500.00,500.00,,450,-0.06,0.00,-0.44
121969,0,0,2.00,0.01010,0.50,500.00,500.00,,450,110,400.00,d,110,400.00,300.00,0.00050,0.06,0.00,-0.44
122009,0,0,2.00,0.01010,0.50,500.00,500.00,,fpd0.50,500.00,500.00,,450,110,400.00,300.00,0.00050,0.13,0.00,-0.44
122049,0,0,2.0-0.44
122090,0,0,2.00,0.01010,0.50,500.00,500.00,,450,10,0,0,2.00,0.01010,0.50,500.00,500.00,,450,110,400.00,300.00,0.00050,0.06,0.00,-0.44
0.00,-0.44
122150,0,0,2.00,0.01010,0.50,500.00,500.00,,450,110,400.00,300.00,0.000502.00,0.01010,0.50,500.00,500.00,,450,110,400.00,300.00,0.00050,0.00,0.00,-00050,-0.06,0.00,-0.44
122232,0,0,2.00,0.01010,0.50,500.00,500.00,,450,110,400.00,300.00,0.0400.00,300.00,0.00050,0.19,0.00,-0.44
122272,0,0,2.00,0.01010,0.50,500.00,500.00,,450,122313,0,0,2.00,0.01010,0.50,500.00,500.00,,450,110,400.00,300.00,450,110,400.00,300.00,0.00050,0.00,0.00,-0.44
122354,0,0,2.00,0.01010,0.50,500.00,500.00,,f10,0.50,500.00,500.00,,450,110,400.00,300.00,0.00050,0.00,0.00,-0.44
122395,0,0,,110,400.00,300.00,0.00050,0.25,0.00,-0.44
122436,0,0,2.00,0.01010,0.50,500.0,0,2.00,0.01010,0.50,500.00,500.00,,450,110,400.00,300.00,0.00050,0.06,0.00,-0.44
122477,00.00,-0.44
122498,0,0,2.00,0.01010,0.50,500.00,500.00,,450,110,400.00,300.00,0.00050,300.00,0.00050,-0.06,0.00,-0.44
122559,0,0,0.00050,0.06,0.00,-0.44
122580,0,0,2.00,0.01010,0.50,500.00,500.00,,450,110,400.00,300.00,,400.00,300.00,0.00050,0.06,0.00,-0.44
122619,0,0,2.00,0.01010,0.50,500.00,500.00,,050,-0.19,0.00,-0.44
122661,0,0,2.00,0.01010,0.50,500.00,500.00,,450,110,400.000,,450,110,400.00,300.00,0.00050,-0.06,0.00,-0.44
122701,0,0,2.00,0.01010,0.50,500.00,500..01010,0.50,500.00,500.00,,450,110,400.00,300.00,0.00050,0.06,0.00,-0.44
122741,300.00,0.00050,-0.25,0.00,-0.44
122782,0,0,2.00,0.01010,0.50,500.
122802,0,0,2.00,0.01010,0.50,500.00,500.00,,450,110,400.00,300.00,0.00050,0.06,0.00,-0.44>x,0.00,-0.44
122842,0,0,2.00,0.01010,0.50,500.00,500.00,,450,110,400.00,300.00,u22883,0,0,2.00,0.01010,0.50,500.00,500.00,,450,110,400.00,300.00,0.00050,-0.37,e00.00,0.00050,-0.06,0.00,-0.44
122924,0,0,2.00,0.01010,0.50,500.00,500.00,,450,110,400.00,350,110,400.00,300.00,0.00050,-0.06,0.00,-0.44
122964,0,0,2.00,0.01010,0.50,500.00,500.01010,0.50,500.00,500.00,,450,110,400.00,300.0000.00,500.00,,450,110,400.00,300.00,0.00050,0.00,0.00,-0.44
123047,0,0,2.00,0.01010,0.50,500,0,2.00,0.01010,0.50,500.00,500.00,,450,110,400.00,300.00,0.00050,0.06,0.00,-0.44>,500.00,,450,110,400.00,300.00,0.00050,0.00,0.00,-0.44
123129,0,0,2.00,00.44
123150,0,0,2.00,0.01010,0.50,500.00,500.00,,450,110,400.00,300.00,0.00050,0.00,0.00,-050,0.00,0.00,-0.44
123191,0,0,2.00,0.01010,0.50,500.00,500.00,,450,110,400.00,300.0.50,500.00,500.00,,450,110,400.00,300.00,0.00050,-0.06,0.0,300.00,0.00050,-0.13,0.00,-0.44
123270,0,0,2.00,0.01010,0.50,500.00,500.00,,450,110,400.00,450,110,400.00,300.00,0.00050,0.06,0.00,-0.44
123313,0,0,2.00,0.01010,0.50,500.00.00,0.00050,-0.19,0.00,-0.44
123353,0,0,2.00,0.01010,0.50,500.00,500.00,,450,fc0,500.00,500.00,,450,110,400.00,300.00,0.00050,-0.06,0.00,-0.44
123394,0,0,2.00,0.01010,0.5414,0,0,2.00,0.01010,0.50,500.00,500.00,,450,110,400.00,300.00,0.00050,0.19,0.00,-00,-0.06,0.00,-0.44
123475,0,0,2.00,0.01010,0.50,0.00,-0.44
123495,0,0,2.00,0.01010,0.50,500.00,500.00,,450,110,400.00,300.00,0.00050,0.06,,0.00050,0.13,0.00,-0.44
123535,0,0,2.00,0.01010,0.50,500.00,500.00,,450,110,400.00,-0.44
123575,0,0,2.00,0.01010,0.50,500.00,500.00,,450,110,400.00,300.00,0.000,300.00,0.00050,0.13,0.00,-0.44
123616,0,0,2.00,0.01010,0.50,500.00,500.00,,450,110,.00,,450,110,400.00,300.00,0.00050,-0.25,0.00,-0.44
123657,0,0,2.00,0.01010,0.500.13,0.00,-0.44
123697,0,0,2.00,0.01010,0.50,500.00,500.00,,450,1010,0.50,500.00,500.00,,450,110,400.00,300.00,0.00050,0.00,0.00,-0.44
123759,0,0,2.00,0.01010,0.50,500.00,500.00,,450,110,400.00,300.00,0.00050,0.00,0.0050,500.00,500.00,,450,110,400.00,300.00,0.00050,0.31,0.00,-0.44
123819,0.00,-0.44
123842,0,0,2.00,0.01010,0.50,500.00,500.00,,450,110,400.00,300.00,0.00050,-0.06,e00,0.00050,-0.06,0.00,-0.44
123883,0,0,2.00,0.01010,0.50,500.00,500.00,,450,110,40000,0.01010,0.50,500.00,500.00,,450,110,400.00,300.00,0.00050,10,400.00,300.00,0.00050,0.13,0.00,-0.44
123965,0,0,2.00,0.01010,0.50,500.00,500.00,,450,110,500.00,,450,110,400.00,300.00,0.00050,-0.06,0.00,-0.44
124005,0,0,2.00,0.01010400.00,300.00,0.00050,0.06,0.00,-0.44
124045,0,0,2.00,0.01010,0.50,500.00,500.00,,01010,0.50,500.00,500.00,,450,110,400.00,300.00,0.00050,-0.19,0.00,-0.44
124086,0,0,2.00,0.44
124106,0,0,2.00,0.01010,0.50,500.00,500.00,,450,110,400.00,300.00,0.00050,-0.13,0.00050,-0.13,0.00,-0.44
124167,0,0,2.00,0.06,0.00,-0.44
124187,0,0,2.00,0.01010,0.50,500.00,500.00,,450,110,400.00,300.00,0.00050,dr,0.00050,-0.06,0.00,-0.44
124227,0,0,2.00,0.01010,0.50,500.00,500.00,,450,11025,0.00,-0.44
124268,0,0,2.00,0.01010,0.50,500.00,500.00,,450,110,400.00,300.00,110,400.00,300.00,0.00050,0.06,0.00,-0.44
124308,0,0,2.00,0.01010,0.50,500.00,500.00,,4500,500.00,500.00,,450,110,400.00,300.00,0.00050,-0.13,0.00,-0.44
124349,0,0,2.00,0.00050,0.13,0.00,-0.44
124390,0,0,2.00,0.01010,0.50,500.00,500.00,,,0,0,2.00,0.01010,0.50,500.00,500.00,,450,110,400.00,300.00,0.00050,-0.06,0.00,-0.44
0.00,-0.44
124453,0,0,2.00,0.01010,0.50,500.00,500.00,,450,110,400.00,300.00,0.000500,2.00,0.01010,0.50,500.00,500.00,,450,110,400.00,300.00,0.00050,0.13,0.00,.00050,-0.13,0.00,-0.44
124536,0,0,2.00,0.01010,0.50,500.00,500.00,,450,110,400.00,300.00,0dc,300.00,0.00050,-0.13,0.00,-0.44
124574,0,0,2.00,0.01010,0.50,500.00,500.00,,0,500.00,500.00,,450,110,400.00,300.00,0.0005.00,,450,110,400.00,300.00,0.00050,-0.06,0.00,-0.44
124658,0,0,2.00,0.01010,0.50,500.00,500,0.01010,0.50,500.00,500.00,,450,110,400.00,300.00,0.00050,0.06,0.00,-0.44
450,110,400.00,300.00,0.00050,-0.13,0.00,-0.44
124759,0,0,2.00,0.01010,0.50,500.00,500.00,,450,110,400.00,300.00,0.00050,0.06,0.00,-0.44
124799,0,0,2.00,0.01010,0.50,500.00,500.00,,450,110,400.00,300.00,00.00,500.00,,450,110,400.00,300.00,0.00050,0.19,0.00,-0..00,0.00050,0.06,0.00,-0.44
124880,0,0,2.00,0.01010,0.50,500.00,500.00,,450,110,400.00,300.fc,400.00,300.00,0.00050,-0.06,0.00,-0.44
124920,0,0,2.00,0.01010,0.50,500.00,0.00050,-0.13,0.00,-0.44
124961,0,0,2.00,0.01010,0.50,500.00,500.00,,450,110,dc,500.00,,450,110,400.00,300.00,0.00050,-0.06,0.00,-0.44
125001,0,0,2.00,0.01010,0.50,500.00.00,0.01010,0.50,500.00,500.00,,450,110,400.00,300.00,0.00050,0.13,0.00,-0.44
126,0.00,-0.44
125083,0,0,2.00,0.01010,0.50,500.00,500.0.44
125104,0,0,2.00,0.01010,0.50,500.00,500.00,,450,110,400.00,300.00,0.00050,0.13,0.00,-0.0,-0.06,0.00,-0.44
125145,0,0,2.00,0.01010,0.50,500.00,500.00,,450,110,400.00,300.0<125186,0,0,2.00,0.01010,0.50,500.00,500.00,,450,110,400.00,300.00,0.00050,-0.13,0.00050,0.25,0.00,-0.44
125225,0,0,2.00,0.01010,0.50,500.00,500.00,,450,110,400.00,450,110,400.00,300.00,0.00050,0.06,0.00,-0.44
125269,0,0,2.00,0.01010,0.50,500.00,500,-0.44
125309,0,0,2.00,0.01010,0.50,500.00,500.00,,450,110,400.000.00,500.00,,450,110,400.00,300.00,0.00050,-0.31,0.00,-0.44
125350,0,0,2.00,0.01010,0.50,5,0,0,2.00,0.01010,0.50,500.00,500.00,,450,110,400.00,300.00,0.00050,0.00,0.00,-0.44,500.00,,450,110,400.00,300.00,0.00050,0.06,0.00,-0.44
125430,0,0,2.00,0-0.44
125451,0,0,2.00,0.01010,0.50,500.00,500.00,,450,110,400.00,300.00,0.00050,-0.06,0.00,0050,0.13,0.00,-0.44
125491,0,0,2.00,0.01010,0.50,500.00,500.00,,450,110,400.00,300c,400.00,300.00,0.00050,0.00,0.00,-0.44>.00,300.00,0.00050,0.00,0.00,-0.44
125572,0,0,2.00,0.01010,0.50,500.00,500.00,,450,110,400.,450,110,400.00,300.00,0.00050,-0.13,0.00,-0.44
125612,0,0,2.00,0.01010,0.50,500300.00,0.00050,-0.06,0.00,-0.44
125653,0,0,2.00,0.01010,0.50,500.00,500.00,,450,f0,500.00,500.00,,450,110,400.00,300.00,0.00050,0.00,0.00,-0.44
125693,0,0,2.00,0.01010,0.5013,0,0,2.00,0.01010,0.50,500.00,500.00,,450,110,400.00,300.00,0.00050,-0.06,0.00,-0,400.00,300.00,0.00050,0.06,0.00,-0.44
125775,0,0,2.00,0.0100.00,-0.44
125795,0,0,2.00,0.01010,0.50,500.00,500.00,,450,110,400.00,300.00,0.00050,-0.13,0,0.00050,-0.31,0.00,-0.44
125837,0,0,2.00,0.01010,0.50,500.00,500.00,,450,110,400.,-0.44
125876,0,0,2.00,0.01010,0.50,500.00,500.00,,450,110,400.00,300.00,0.000400.00,300.00,0.00050,-0.13,0.00,-0.44
125919,0,0,2.00,0.01010,0.50,500.00,500.00,,450,110,0.00,,450,110,400.00,300.00,0.00050,-0.13,0.00,-0.44
125961,0,0,2.00,0.01010,0.502,0,0,2.00,0.01010,0.50,500.00,500.00,,450,110,400.01010,0.50,500.00,500.00,,450,110,400.00,300.00,0.00050,0.00,0.00,-0.44
126042,0,0,2.00,0.44
126062,0,0,2.00,0.01010,0.50,500.00,500.00,,450,110,400.00,300.00,0.00050,0.19,,0.50,500.00,500.00,,450,110,400.00,300.00,0.00050,-0.19,0.00,-0.44
126100,0.00,-0.44
126143,0,0,2.00,0.01010,0.50,500.00,500.00,,450,110,400.00,300.00,0.00050,0.000.00,0.00050,0.06,0.00,-0.44
126183,0,0,2.00,0.01010,0.50,500.00,500.00,,450,110,4.00,0.01010,0.50,500.00,500.00,,450,110,400.00,300.00,0.00050,gx10,400.00,300.00,0.00050,0.25,0.00,-0.44
126264,0,0,2.00,0.01010,0.50,500.00,500.00,,450,110,500.00,,450,110,400.00,300.00,0.00050,0.13,0.00,-0.44
126304,0,0,2.00,0.01010,00.00,300.00,0.00050,0.19,0.00,-0.44
126345,0,0,2.00,0.01010,0.50,500.00,500.00,,f01010,0.50,500.00,500.00,,450,110,400.00,300.00,0.00050,0.06,0.00,-0.44
126385,0,0,2.00,0.0
126405,0,0,2.00,0.01010,0.50,500.00,500.00,,450,110,400.00,300.00,0.00050,-0.13,0,110,400.00,300.00,0.00050,0.13,0.00,-0.44
126466,0,0,2.0.06,0.00,-0.44
126486,0,0,2.00,0.01010,0.50,500.00,500.00,,450,110,400.00,300.00,0.00050,0.300.00,0.00050,-0.13,0.00,-0.44
126527,0,0,2.00,0.01010,0.50,500.00,500.00,,450,110,0.00,-0.44
126568,0,0,2.00,0.01010,0.50,500.00,500.00,,450,110,400.00,300.00,u2110,400.00,300.00,0.00050,0.06,0.00,-0.44
126609,0,0,2.00,0.01010,0.50,500.00,500.00,,450,1.00,500.00,,450,110,400.00,300.00,0.00050,0.19,0.00,-0.44
126651,0,0,2.00,0.0101126692,0,0,2.00,0.01010,0.50,500.00,500.00,,450,110,00,0.01010,0.50,500.00,500.00,,450,110,400.00,300.00,0.00050,0.06,0.00,-0.44
126730,0,0,2.0-0.44
126754,0,0,2.00,0.01010,0.50,500.00,500.00,,450,110,400.00,300.00,0.00050,0.00,1010,0.50,500.00,500.00,,450,110,400.00,300.00,0.00050,-0.19,0.00,-0.44
0.00,0.00,-0.44
126833,0,0,2.00,0.01010,0.50,500.00,500.00,,450,110,400.00,300.00,0.00050,300.00,0.00050,0.00,0.00,-0.44
126875,0,0,2.00,0.01010,0.50,500.00,500.00,,450,110,,0,2.00,0.01010,0.50,500.00,500.00,,450,110,400.00,300.00,0.0005fc,400.00,300.00,0.00050,-0.19,0.00,-0.44
126956,0,0,2.00,0.01010,0.50,500.00,500.00,,450,,500.00,500.00,,450,110,400.00,300.00,0.00050,-0.06,0.00,-0.44
126996,0,0,2.00,0110,400.00,300.00,0.00050,0.00,0.00,-0.44
127037,0,0,2.00,0.01010,0.50,500.00,5,2.00,0.01010,0.50,500.00,500.00,,450,110,400.00,300.00,0.00050,0.00,0.00,-0.44
127077,0,0,,-0.44
127097,0,0,2.00,0.01010,0.50,500.00,500.00,,450,110,400.00,300.00,0.00050,0.300.00,0.00050,0.00,0.00,-0.44
127158,0,0,2.00,0050,-0.13,0.00,-0.44
127178,0,0,2.00,0.01010,0.50,500.00,500.00,,450,110,400.00,300.00,0.0000.00,300.00,0.00050,-0.06,0.00,-0.44
127219,0,0,2.00,0.01010,0.50,500.00,500.00,,450,0.00,0.00,-0.44
127259,0,0,2.00,0.01010,0.50,500.00,500.00,,450,110,400.00,3,110,400.00,300.00,0.00050,0.06,0.00,-0.44
127300,0,0,2.00,0.01010,0.50,500.00,500.00,,.50,500.00,500.00,,450,110,400.00,300.00,0.00050,0.06,0.00,-0.44
127340,0,0,0.00050,-0.19,0.00,-0.44
127381,0,0,2.00,0.01010,0.50,500.00,500.03,0,0,2.00,0.01010,0.50,500.00,500.00,,450,110,400.00,300.00,0.00050,0.06,0.00,-0.44
0.00,-0.44
127445,0,0,2.00,0.01010,0.50,500.00,500.00,,450,110,400.00,300.00,0.00050,2.00,0.01010,0.50,500.00,500.00,,450,110,400.00,300.00,0.00050,0.06,0.00,-.00050,0.19,0.00,-0.44
127527,0,0,2.00,0.01010,0.50,500.00,500.00,,450,110,400.00,300.00,0.,300.00,0.00050,0.06,0.00,-0.44
127567,0,0,2.00,0.01010,0.50,500.00,500.00,,450500.00,500.00,,450,110,400.00,300.00,0.00050,g,450,110,400.00,300.00,0.00050,0.00,0.00,-0.44
127648,0,0,2.00,0.01010,0.50,500.00,500.00,,010,0.50,500.00,500.00,,450,110,400.00,300.00,0.00050,-0.19,0.00,-0.44
127688,0,450,110,400.00,300.00,0.00050,0.25,0.00,-0.44
127729,0,0,2.00,0.01010,0.50,749,0,0,2.00,0.01010,0.50,500.00,500.00,,450,110,400.00,300.00,0.00050,-0.13,0.00,-0.44
127,0.00,-0.44
127789,0,0,2.00,0.01010,0.50,500.00,500.00,,450,110,400.00,300.00,0.000500.00,,450,110,400.00,300.00,0.00050,-0.06,0.00,"-0.44>u2",-0.13,0.00,-0.44
127870,0,0,2.00,0.01010,0.50,500.00,500.00,,450,110,400.00,300.00,110,400.00,300.00,0.00050,-0.06,0.00,-0.44
127911,0,0,2.00,0.01010,0.50,500.00,500.00,,.00050,-0.13,0.00,-0.44
127951,0,0,2.00,0.01010,0.50,500.00,500.00,,450,110,40.00,,450,110,400.00,300.00,0.00050,-0.06,0.00,-0.44
127992,0,0,2.00,0.01010,0.50,500.00,500,0.01010,0.50,500.00,500.00,,450,110,400.00,300.00,0.00050,-0.19,0.00,-0.44
0.00,-0.44
128074,0,0,2.00,0.01010,0.50,500.00,500.00,,
128095,0,0,2.00,0.01010,0.50,500.00,500.00,,450,110,400.00,300.00,0.00050,0.00,0.00,-0.44>x,0.00,-0.44
128134,0,0,2.00,0.01010,0.50,500.00,500.00,,450,110,400.00,300.00,u128178,0,0,2.00,0.01010,0.50,500.00,500.00,,450,110,400.00,300.00,0.00050,0.06,e0.00,0.00050,-0.31,0.00,-0.44
128219,0,0,2.00,0.01010,0.50,500.00,500.00,,450,110,400.00,300,110,400.00,300.00,0.00050,0.00,0.00,-0.44
128260,0,0,2.00,0.01010,0.50,500.00,500.,-0.44
128300,0,0,2.00,0.01010,0.50,500.00,500.00,,450,110,400.000.00,500.00,,450,110,400.00,300.00,0.00050,-0.13,0.00,-0.44
128340,0,0,2.00,0.01010,0.50,50,0,2.00,0.01010,0.50,500.00,500.00,,450,110,400.00,300.00,0.00050,0.00,0.00,"-0.44>500.00",,450,110,400.00,300.00,0.00050,0.19,0.00,-0.44
128421,0,0,2.00,0..44
128441,0,0,2.00,0.01010,0.50,500.00,500.00,,450,110,400.00,300.00,0.00050,-0.06,0.00,-0050,0.19,0.00,-0.44
128482,0,0,2.00,0.01010,0.50,500.00,500.00,,450,110,400.00,300..50,500.00,500.00,,450,110,400.00,300.00,0.00050,-0.06,0.00,300.00,0.00050,0.06,0.00,-0.44
128563,0,0,2.00,0.01010,0.50,500.00,500.00,,450,110,400.00pd,110,400.00,300.00,0.00050,-0.06,0.00,-0.44
128603,0,0,2.00,0.01010,0.50,500.0300.00,0.00050,-0.13,0.00,-0.44
128644,0,0,2.00,0.01010,0.50,500.00,500.00,,450,f0,500.00,500.00,,450,110,400.00,300.00,0.00050,0.13,0.00,-0.44
128684,0,0,2.00,0.01010,0.5005,0,0,2.00,0.01010,0.50,500.00,500.00,,450,110,400.00,300.00,0.00050,0.06,0.00,-0.,0.06,0.00,-0.44
128766,0,0,2.00,0.01010,0.50,500.00.00,-0.44
128786,0,0,2.00,0.01010,0.50,500.00,500.00,,450,110,400.00,300.00,0.00050,-0.19,,0.00050,0.19,0.00,-0.44
128828,0,0,2.00,0.01010,0.50,500.00,500.00,,450,110,400.00,-0.44
128870,0,0,2.00,0.01010,0.50,500.00,500.00,,450,110,400.00,300.00,0.000,300.00,0.00050,0.13,0.00,-0.44
128911,0,0,2.00,0.01010,0.50,500.00,500.00,,450,110,.00,,450,110,400.00,300.00,0.00050,-0.06,0.00,-0.44
128952,0,0,2.00,0.01010,0.50.13,0.00,-0.44
128990,0,0,2.00,0.01010,0.50,500.00,500.00,,450,1110,0.50,500.00,500.00,,450,110,400.00,300.00,0.00050,0.00,0.00,-0.44
129033,0,0,2.00,0.0101<129053,0,0,2.00,0.01010,0.50,500.00,500.00,,450,110,400.00,300.00,0.00050,-0.06,0.0050,500.00,500.00,,450,110,400.00,300.00,0.00050,-0.31,0.00,-0.44
129113,,0.00,-0.44
129134,0,0,2.00,0.01010,0.50,500.00,500.00,,450,110,400.00,300.00,0.00050,-0.060.00,0.00050,-0.31,0.00,-0.44
129174,0,0,2.00,0.01010,0.50,500.00,500.00,,450,110,400,,450,110,400.00,300.00,0.00050,-0.19,110,400.00,300.00,0.00050,-0.06,0.00,-0.44
129255,0,0,2.00,0.01010,0.50,500.00,500.00,,450,,500.00,500.00,,450,110,400.00,300.00,0.00050,0.00,0.00,-0.44
129296,0,0,2.00,0.10,400.00,300.00,0.00050,0.13,0.00,-0.44
129336,0,0,2.00,0.01010,0.50,500.00,50.00,0.01010,0.50,500.00,500.00,,450,110,400.00,300.00,0.00050,-0.19,0.00,-0.44
129377,0,0,-0.44
129397,0,0,2.00,0.01010,0.50,500.00,500.00,,450,110,400.00,300.00,0.00050,-0.,450,110,400.00,300.00,0.00050,-0.37,0.00,-0.44
12946050,-0.19,0.00,-0.44
129481,0,0,2.00,0.01010,0.50,500.00,500.00,,450,110,400.00,300.00,0.00400.00,300.00,0.00050,0.00,0.00,-0.44
129523,0,0,2.00,0.01010,0.50,500.00,500.00,,450,0.06,0.00,-0.44
129563,0,0,2.00,0.01010,0.50,500.00,500.00,,450,110,400.00,3d,110,400.00,300.00,0.00050,0.00,0.00,-0.44
129604,0,0,2.00,0.01010,0.50,500.00,500.00,,fpd,0.50,500.00,500.00,,450,110,400.00,300.00,0.00050,0.19,0.00,-0.44
129643,0,0,2.-0.44
129685,0,0,2.00,0.01010,0.50,500.00,500.00,,450,05,0,0,2.00,0.01010,0.50,500.00,500.00,,450,110,400.00,300.00,0.00050,0.13,0.00,-0.44
0.00,-0.44
129745,0,0,2.00,0.01010,0.50,500.00,500.00,,450,110,400.00,300.00,0.000500,2.00,0.01010,0.50,500.00,500.00,,450,110,400.00,300.00,0.00050,0.06,0.00,0.00050,0.00,0.00,-0.44
129826,0,0,2.00,0.01010,0.50,500.00,500.00,,450,110,400.00,300.00,0c,300.00,0.00050,-0.13,0.00,-0.44
129907,0,0,2.00,0.01010,0.50,500.00,500.00,,450,110,400.00,300.000,,450,110,400.00,300.00,0.00050,-0.19,0.00,-0.44
129948,0,0,2.00,0.01010,0.50,500.00,500.0.01010,0.50,500.00,500.00,,450,110,400.00,300.00,0.00050,-0.06,0.00,-0.44
450,110,400.00,300.00,0.00050,-0.06,0.00,-0.44
130029,0,0,2.00,0.01010,0.<130049,0,0,2.00,0.01010,0.50,500.00,500.00,,450,110,400.00,300.00,0.00050,0.00,0.00,-0.44
.19,0.00,-0.44
130090,0,0,2.00,0.01010,0.50,500.00,500.00,,450,110,400.00,300.00,0.,300.00,0.00050,0.06,0.00,-0.44
1301520.00,0.00050,0.19,0.00,-0.44
130173,0,0,2.00,0.01010,0.50,500.00,500.00,,450,110,400.00,300fc,400.00,300.00,0.00050,0.13,0.00,-0.44
130214,0,0,2.00,0.01010,0.50,500.00,0.00050,-0.13,0.00,-0.44
130255,0,0,2.00,0.01010,0.50,500.00,500.00,,450,110,,500.00,,450,110,400.00,300.00,0.00050,-0.06,0.00,-0.44
130293,0,0,2.00,0.01010,0.50,500.002.00,0.01010,0.50,500.00,500.00,,450,110,400.00,300.00,0.00050,0.00,0.00,-0.44
100,300.00,0.00050,-0.25,0.00,-0.44
130378,0,0,2.00,0.01010,0.500.44
130396,0,0,2.00,0.01010,0.50,500.00,500.00,,450,110,400.00,300.00,0.00050,0.06,0.00,-050,0.19,0.00,-0.44
130478,0,0,2.00,0.01010,0.50,500.00,500.00,,450,110,400.00,300.00,0.00050,-0.dr,0.00050,0.06,0.00,-0.44
130519,0,0,2.00,0.01010,0.50,500.00,500.00,,450,110,400.00,450,110,400.00,300.00,0.00050,-0.13,0.00,-0.44
130559,0,0,2.00,0.01010,0.50,500.00,0,0.01010,0.50,500.00,500.00,,450,110,400.00,300.0,500.00,500.00,,450,110,400.00,300.00,0.00050,0.00,0.00,-0.44
130640,0,0,2.00,0.01010,0.500,0,0,2.00,0.01010,0.50,500.00,500.00,,450,110,400.00,300.00,0.00050,-0.06,0.00,-0..00,500.00,,450,110,400.00,300.00,0.00050,0.00,0.00,-0.44
130721,0,0,2.0,-0.44
130742,0,0,2.00,0.01010,0.50,500.00,500.00,,450,110,400.00,300.00,0.00050,0.00,0.00,.00050,-0.13,0.00,-0.44
130782,0,0,2.00,0.01010,0.50,500.00,500.00,,450,110,400.00,010,0.50,500.00,500.00,,450,110,400.00,300.00,0.00050,0.13,0.00,300.00,0.00050,-0.06,0.00,-0.44
130865,0,0,2.00,0.01010,0.50,500.00,500.00,,450,110,400,,450,110,400.00,300.00,0.00050,0.06,0.00,-0.44
130906,0,0,2.00,0.01010,0.50,300.00,0.00050,-0.19,0.00,-0.44
130945,0,0,2.00,0.01010,0.50,500.00,500.00,,4500.50,500.00,500.00,,450,110,400.00,300.00,0.00050,-0.06,0.00,-0.44
130989,0,0,2.00,0.01010,131009,0,0,2.00,0.01010,0.50,500.00,500.00,,450,110,400.00,300.00,0.00050,-0.13,0.00,110,400.00,300.00,0.00050,0.00,0.00,-0.44
131070,0,0,2.00,,0.00,-0.44
131090,0,0,2.00,0.01010,0.50,500.00,500.00,,450,110,400.00,300.00,0.00050,0.00,.00,0.00050,0.13,0.00,-0.44
131131,0,0,2.00,0.01010,0.50,500.00,500.00,,450,110,4000,-0.44
131171,0,0,2.00,0.01010,0.50,500.00,500.00,,450,110,400.00,300.00,0.00c,300.00,0.00050,0.06,0.00,-0.44
131211,0,0,2.00,0.01010,0.50,500.00,500.00,,450,110,dc0.00,,450,110,400.00,300.00,0.00050,0.13,0.00,-0.44
131251,0,0,2.00,0.01010,0.500,0,2.00,0.01010,0.50,500.00,500.00,,450,110,400.00010,0.50,500.00,500.00,,450,110,400.00,300.00,0.00050,-0.13,0.00,-0.44
131352,0,0,2.00,0.01010,0.50,500.00,500.00,,450,110,400.00,300.00,0.00050,0.00,0.050,500.00,500.00,,450,110,400.00,300.00,0.00050,0.25,0.00,-0.44
131413,0.00,-0.44
131433,0,0,2.00,0.01010,0.50,500.00,500.00,,450,110,400.00,300.00,0.00050,-0.19,e00,0.00050,-0.19,0.00,-0.44
131474,0,0,2.00,0.01010,0.50,500.00,500.00,,450,110,4000,0.01010,0.50,500.00,500.00,,450,110,400.00,300.00,0.00050,0,400.00,300.00,0.00050,0.00,0.00,-0.44
131555,0,0,2.00,0.01010,0.50,500.00,500.00,,450,110,500.00,,450,110,400.00,300.00,0.00050,-0.25,0.00,-0.44
131595,0,0,2.00,0.01010,000.00,300.00,0.00050,0.06,0.00,-0.44
131638,0,0,2.00,0.01010,0.50,500.00,500.00,,f01010,0.50,500.00,500.00,,450,110,400.00,300.00,0.00050,-0.13,0.00,-0.44
131680,0,0,2.00,0.4
131697,0,0,2.00,0.01010,0.50,500.00,500.00,,450,110,400.00,300.00,0.00050,-0.13,2,0.00,0.00,-0.44
131761,0,0,2.00,0.01010,0.06,0.00,-0.44
131782,0,0,2.00,0.01010,0.50,500.00,500.00,,450,110,400.00,300.00,0.00050,-0,0.00050,0.06,0.00,-0.44
131822,0,0,2.00,0.01010,0.50,500.00,500.00,,450,110,0.00,-0.44
131863,0,0,2.00,0.01010,0.50,500.00,500.00,,450,110,400.00,300.00,110,400.00,300.00,0.00050,0.00,0.00,-0.44
131902,0,0,2.00,0.01010,0.50,500.00,500.00,,450,1.00,500.00,,450,110,400.00,300.00,0.00050,0.06,0.00,-0.44
131943,0,0,2.00,0.01010,-0.06,0.00,-0.44
131984,0,0,2.00,0.01010,0.50,500.00,500.00,,4500,0.01010,0.50,500.00,500.00,,450,110,400.00,300.00,0.00050,0.06,0.00,-0.44
132024,0,0,2.0-0.44
132045,0,0,2.00,0.01010,0.50,500.00,500.00,,450,110,400.00,300.00,0.00050,-0.251010,0.50,500.00,500.00,,450,110,400.00,300.00,0.00050,0.00,0.00,-0.44
0.00,0.00,-0.44
132125,0,0,2.00,0.01010,0.50,500.00,500.00,,450,110,400.00,300.00,0.00050,dr,0.00050,-0.06,0.00,-0.44
132165,0,0,2.00,0.01010,0.50,500.00,500.00,,450,110,500.00,,450,110,400.00,300.00,0.00050,-0.1450,110,400.00,300.00,0.00050,-0.06,0.00,-0.44
132247,0,0,2.00,0.01010,0.50,500.00,500.00,,.50,500.00,500.00,,450,110,400.00,300.00,0.00050,0.13,0.00,-0.44
132288,0,0,110,400.00,300.00,0.00050,-0.13,0.00,-0.44
132330,0,0,2.00,0.01010,0.50,500.0,0,2.00,0.01010,0.50,500.00,500.00,,450,110,400.00,300.00,0.00050,-0.06,0.00,-0.44
132371,0.00,-0.44
132392,0,0,2.00,0.01010,0.50,500.00,500.00,,450,110,400.00,300.00,0.00050,gx00,,450,110,400.00,300.00,0.00050,0.00,0.00,-0.44
13200050,-0.06,0.00,-0.44
132474,0,0,2.00,0.01010,0.50,500.00,500.00,,450,110,400.00,300.00,0.,300.00,0.00050,-0.06,0.00,-0.44
132515,0,0,2.00,0.01010,0.50,500.00,500.00,,450,0.25,0.00,-0.44
132554,0,0,2.00,0.01010,0.50,500.00,500.00,,450,110,400.00,450,110,400.00,300.00,0.00050,0.25,0.00,-0.44
132595,0,0,2.00,0.01010,0.50,500.00,500.00,,f0,0.50,500.00,500.00,,450,110,400.00,300.00,0.00050,-0.06,0.00,-0.44
132636,0,0,,-0.44
132676,0,0,2.00,0.01010,0.50,500.00,500.00,,4532697,0,0,2.00,0.01010,0.50,500.00,500.00,,450,110,400.00,300.00,0.00050,-0.06,0.00,-0.44
113,0.00,-0.44
132737,0,0,2.00,0.01010,0.50,500.00,500.00,,450,110,400.00,300.00,0.00,0,2.00,0.01010,0.50,500.00,500.00,,450,110,400.00,300.00,0.00050,0.06,0.00,0.00050,-0.06,0.00,-0.44
132817,0,0,2.00,0.01010,0.50,500.00,500.00,,450,110,400.00,300.00,u0,400.00,300.00,0.00050,0.13,0.00,-0.44
132858,0,0,2.00,0.01010,0.50,500.00,500.00,,fpd4
132898,0,0,2.00,0.01010,0.50,500.00,500.00,,450,110,400.00,3000.00,,450,110,400.00,300.00,0.00050,0.06,0.00,-0.44
132939,0,0,2.00,0.01010,0.50,500.00,500,0.01010,0.50,500.00,500.00,,450,110,400.00,300.00,0.00050,0.06,0.00,-0.44
450,110,400.00,300.00,0.00050,-0.13,0.00,-0.44
133021,0,0,2.00,0.01010,0<133041,0,0,2.00,0.01010,0.50,500.00,500.00,,450,110,400.00,300.00,0.00050,-0.19,0.00,-0.44
133083,0,0,2.00,0.01010,0.50,500.00,500.00,,450,110,400.00,300.00,000.00,500.00,,450,110,400.00,300.00,0.00050,-0.13,0.00,-00.00,0.00050,-0.06,0.00,-0.44
133166,0,0,2.00,0.01010,0.50,500.00,500.00,,450,110,400.00,350,110,400.00,300.00,0.00050,0.13,0.00,-0.44
133204,0,0,2.00,0.01010,0.50,500.00,5000,0.00050,-0.06,0.00,-0.44
133248,0,0,2.00,0.01010,0.50,500.00,500.00,,450,11.00,500.00,,450,110,400.00,300.00,0.00050,0.00,0.00,-0.44
133288,0,0,2.00,0.01010,0.50,500.,0,2.00,0.01010,0.50,500.00,500.00,,450,110,400.00,300.00,0.00050,0.06,0.00,"-0.44>0.06",0.00,-0.44
133369,0,0,2.00,0.01010,0.50,500.00,50,-0.44
133389,0,0,2.00,0.01010,0.50,500.00,500.00,,450,110,400.00,300.00,0.00050,-0.06,0.000.00050,0.13,0.00,-0.44
133429,0,0,2.00,0.01010,0.50,500.00,500.00,,450,110,400.00,.44
133469,0,0,2.00,0.01010,0.50,500.00,500.00,,450,110,400.00,300.00,0.00050,gx0,300.00,0.00050,-0.06,0.00,-0.44
133510,0,0,2.00,0.01010,0.50,500.00,500.00,,450,110,400.0,,450,110,400.00,300.00,0.00050,0.06,0.00,-0.44
133550,0,0,2.00,0.01010,0.50,500,0.00,-0.44
133591,0,0,2.00,0.01010,0.50,500.00,500.00,,450,110,d0.50,500.00,500.00,,450,110,400.00,300.00,0.00050,0.13,0.00,-0.44
133631,0,0,2.00,0.01010,033652,0,0,2.00,0.01010,0.50,500.00,500.00,,450,110,400.00,300.00,0.00050,0.06,0.00,00.00,500.00,,450,110,400.00,300.00,0.00050,-0.13,0.00,-0.44
133713,0,0,0.00,-0.44
133734,0,0,2.00,0.01010,0.50,500.00,500.00,,450,110,400.00,300.00,0.00050,0.00,0u2,0.13,0.00,-0.44
133776,0,0,2.00,0.01010,0.50,500.00,500.00,,450,110,400.00,450,110,400.00,300.00,0.00050,0.19,0.00,-,300.00,0.00050,0.06,0.00,-0.44
133855,0,0,2.00,0.01010,0.50,500.00,500.00,,450,110,0.00,,450,110,400.00,300.00,0.00050,-0.19,0.00,-0.44
133900,0,0,2.00,0.01010,0.500,300.00,0.00050,-0.13,0.00,-0.44
133940,0,0,2.00,0.01010,0.50,500.00,500.00,,fpd10,0.50,500.00,500.00,,450,110,400.00,300.00,0.00050,0.00,0.00,-0.44
133980,0,0,2.00,0.0101<134000,0,0,2.00,0.01010,0.50,500.00,500.00,,450,110,400.00,300.00,0.00050,0.13,0.00,110,400.00,300.00,0.00050,-0.06,0.00,-0.44
134061,0,0,2.00,0,0.00,-0.44
134081,0,0,2.00,0.01010,0.50,500.00,500.00,,450,110,400.00,300.00,0.00050,-0.000.00,0.00050,-0.19,0.00,-0.44
134121,0,0,2.00,0.01010,0.50,500.00,500.00,,450,110,,-0.44
134162,0,0,2.00,0.01010,0.50,500.00,500.00,,450,110,400.00,300.00,10,400.00,300.00,0.00050,0.00,0.00,-0.44
134202,0,0,2.00,0.01010,0.50,500.00,500.00,,450,110,500.00,,450,110,400.00,300.00,0.00050,0.06,0.00,-0.44
134242,0,0,2.00,0.01010,4283,0,0,2.00,0.01010,0.50,500.00,500.00,,450,110,4,0.01010,0.50,500.00,500.00,,450,110,400.00,300.00,0.00050,0.13,0.00,-0.44
134323,0,0,2.00,.44
134343,0,0,2.00,0.01010,0.50,500.00,500.00,,450,110,400.00,300.00,0.00050,0.31,er10,0.50,500.00,500.00,,450,110,400.00,300.00,0.00050,0.13,0.00,-0.44
1340.06,0.00,-0.44
134425,0,0,2.00,0.01010,0.50,500.00,500.00,,450,110,400.00,300.00,0.00050,-r,0.00050,-0.06,0.00,-0.44
134467,0,0,2.00,0.01010,0.50,500.00,500.00,,450,110,0,0,2.00,0.01010,0.50,500.00,500.00,,450,110,400.00,300.00,0.000,110,400.00,300.00,0.00050,0.13,0.00,-0.44
134550,0,0,2.00,0.01010,0.50,500.00,500.00,,450,,500.00,500.00,,450,110,400.00,300.00,0.00050,0.06,0.00,-0.44
134591,0,0,2.00,0.0,400.00,300.00,0.00050,-0.13,0.00,-0.44
134632,0,0,2.00,0.01010,0.50,500.00,50.00,0.01010,0.50,500.00,500.00,,450,110,400.00,300.00,0.00050,0.13,0.00,-0.44
134672,0,0,-0.44
134692,0,0,2.00,0.01010,0.50,500.00,500.00,,450,110,400.00,300.00,0.00050,-0.20.00,0.00050,-0.06,0.00,-0.44
134753,0,0,2.00,0050,0.00,0.00,-0.44
134773,0,0,2.00,0.01010,0.50,500.00,500.00,,450,110,400.00,300.00,0.0000.00,300.00,0.00050,0.00,0.00,-0.44
134813,0,0,2.00,0.01010,0.50,500.00,500.00,,450,fc0.19,0.00,-0.44
134854,0,0,2.00,0.01010,0.50,500.00,500.00,,450,110,400.00,30050,110,400.00,300.00,0.00050,-0.06,0.00,-0.44
134894,0,0,2.00,0.01010,0.50,500.00,500.00,,450,500.00,500.00,,450,110,400.00,300.00,0.00050,0.00,0.00,-0.44
134934,0,0,2.00,0.00050,-0.06,0.00,-0.44
134975,0,0,2.00,0.01010,0.50,500.00,500.00,,,0,0,2.00,0.01010,0.50,500.00,500.00,,450,110,400.00,300.00,0.00050,0.13,0.00,-0.44
135015,0.00,-0.44
135035,0,0,2.00,0.01010,0.50,500.00,500.00,,450,110,400.00,300.00,0.00050,.00,0.01010,0.50,500.00,500.00,,450,110,400.00,300.00,0.00050,-0.13,0.00,-000050,-0.13,0.00,-0.44
135117,0,0,2.00,0.01010,0.50,500.00,500.00,,450,110,400.00,300.00,0.c,300.00,0.00050,-0.13,0.00,-0.44
135158,0,0,2.00,0.01010,0.50,500.00,500.00,,4,500.00,500.00,,450,110,400.00,300.00,0.00050,0,,450,110,400.00,300.00,0.00050,-0.25,0.00,-0.44
135241,0,0,2.00,0.01010,0.50,500.00,500.001010,0.50,500.00,500.00,,450,110,400.00,300.00,0.00050,0.13,0.00,-0.44
135283,450,110,400.00,300.00,0.00050,0.13,0.00,-0.44
135323,0,0,2.00,0.01010,0.50,344,0,0,2.00,0.01010,0.50,500.00,500.00,,450,110,400.00,300.00,0.00050,-0.19,0.00,-0.44
135,0.00,-0.44
135384,0,0,2.00,0.01010,0.50,500.00,500.00,,450,110,400.00,300.00,0.00000,500.00,,450,110,400.00,300.00,0.00050,0.06,0.00,-0.440,0.00050,-0.44,0.00,-0.44
135465,0,0,2.00,0.01010,0.50,500.00,500.00,,450,110,400.00,300.0,400.00,300.00,0.00050,0.06,0.00,-0.44
135506,0,0,2.00,0.01010,0.50,500.00,500.00,,0.00050,-0.13,0.00,-0.44
135546,0,0,2.00,0.01010,0.50,500.00,500.00,,450,110,400.00,,450,110,400.00,300.00,0.00050,-0.06,0.00,-0.44
135586,0,0,2.00,0.01010,0.50,500.00,500,0.01010,0.50,500.00,500.00,,450,110,400.00,300.00,0.00050,-0.06,0.00,-0.44
130,300.00,0.00050,-0.50,0.00,-0.44
135667,0,0,2.00,0.01010,0.50,0.44
135687,0,0,2.00,0.01010,0.50,500.00,500.00,,450,110,400.00,300.00,0.00050,0.06,0.00,-050,0.00,0.00,-0.44
135769,0,0,2.00,0.01010,0.50,500.00,500.00,,450,110,400.00,300.00,0.00050,-0.2r,0.00050,0.06,0.00,-0.44
135810,0,0,2.00,0.01010,0.50,500.00,500.00,,450,110,400.00,dr450,110,400.00,300.00,0.00050,0.13,0.00,-0.44
135851,0,0,2.00,0.01010,0.50,500.00,500.01010,0.50,500.00,500.00,,450,110,400.00,300.00,500.00,500.00,,450,110,400.00,300.00,0.00050,0.00,0.00,-0.44
135934,0,0,2.00,0.01010,0.50,5,0,0,2.00,0.01010,0.50,500.00,500.00,,450,110,400.00,300.00,0.00050,0.00,0.00,-0.40,500.00,,450,110,400.00,300.00,0.00050,-0.06,0.00,-0.44
136013,0,0,-0.44
136037,0,0,2.00,0.01010,0.50,500.00,500.00,,450,110,400.00,300.00,0.00050,0.13,0.00,R00050,0.00,0.00,-0.44
136077,0,0,2.00,0.01010,0.50,500.00,500.00,,450,110,400.00,30,0.50,500.00,500.00,,450,110,400.00,300.00,0.00050,0.06,0.0,300.00,0.00050,0.25,0.00,-0.44
136158,0,0,2.00,0.01010,0.50,500.00,500.00,,450,110,400.00pd,110,400.00,300.00,0.00050,0.00,0.00,-0.44
136198,0,0,2.00,0.01010,0.50,500.000.00,0.00050,-0.13,0.00,-0.44
136238,0,0,2.00,0.01010,0.50,500.00,500.00,,450,500.00,500.00,,450,110,400.00,300.00,0.00050,0.13,0.00,-0.44
136278,0,0,2.00,0.01010,0.50,5,0,0,2.00,0.01010,0.50,500.00,500.00,,450,110,400.00,300.00,0.00050,-0.06,0.00,-0.4gx,0.00,-0.44
136359,0,0,2.00,0.01010,0.50,500.0.00,-0.44
136380,0,0,2.00,0.01010,0.50,500.00,500.00,,450,110,400.00,300.00,0.00050,0.13,0.2,0.13,0.00,-0.44
136420,0,0,2.00,0.01010,0.50,500.00,500.00,,450,110,400.00,d0.44
136460,0,0,2.00,0.01010,0.50,500.00,500.00,,450,110,400.00,300.00,0.00050,g.00,300.00,0.00050,0.13,0.00,-0.44
136501,0,0,2.00,0.01010,0.50,500.00,500.00,,450,110,400.,450,110,400.00,300.00,0.00050,0.19,0.00,-0.44
136541,0,0,2.00,0.01010,0.50,0.00,-0.44
136582,0,0,2.00,0.01010,0.50,500.00,500.00,,450,110,dc0.50,500.00,500.00,,450,110,400.00,300.00,0.00050,0.06,0.00,-0.44
136623,0,0,2.00,0.01010,06643,0,0,2.00,0.01010,0.50,500.00,500.00,,450,110,400.00,300.00,0.00050,0.13,0.00,-0.00,500.00,,450,110,400.00,300.00,0.00050,0.00,0.00,-0.44
136706,0,0,2.,-0.44
136726,0,0,2.00,0.01010,0.50,500.00,500.00,,450,110,400.00,300.00,0.00050,0.13,0.00,0.00050,0.06,0.00,-0.44
136765,0,0,2.00,0.01010,0.50,500.00,500.00,,450,110,400.00,0,110,400.00,300.00,0.00050,-0.06,0.00,-0.00.00,300.00,0.00050,0.06,0.00,-0.44
136849,0,0,2.00,0.01010,0.50,500.00,500.00,,450,110,400,,450,110,400.00,300.00,0.00050,-0.19,0.00,-0.44
136890,0,0,2.00,0.01010,0.50,5,300.00,0.00050,0.00,0.00,-0.44
136930,0,0,2.00,0.01010,0.50,500.00,500.00,,45,0.50,500.00,500.00,,450,110,400.00,300.00,0.00050,0.00,0.00,-0.44
136970,0,0,2.00,0.01010,136991,0,0,2.00,0.01010,0.50,500.00,500.00,,450,110,400.00,300.00,0.00050,0.25,0.00,R110,400.00,300.00,0.00050,0.00,0.00,-0.44
137051,0,0,2.00,0.00,-0.44
137072,0,0,2.00,0.01010,0.50,500.00,500.00,,450,110,400.00,300.00,0.00050,-0.13,.00,0.00050,0.31,0.00,-0.44
137112,0,0,2.00,0.01010,0.50,500.00,500.00,,450,110,4000,-0.44
137152,0,0,2.00,0.01010,0.50,500.00,500.00,,450,110,400.00,300.00,0.00c,300.00,0.00050,0.13,0.00,-0.44
137192,0,0,2.00,0.01010,0.50,500.00,500.00,,450,110,dc0.00,,450,110,400.00,300.00,0.00050,-0.06,0.00,-0.44
137233,0,0,2.00,0.01010,0.53,0,0,2.00,0.01010,0.50,500.00,500.00,,450,110,400.01010,0.50,500.00,500.00,,450,110,400.00,300.00,0.00050,0.31,0.00,-0.44
137314,0,0,2.00,0.0
137334,0,0,2.00,0.01010,0.50,500.00,500.00,,450,110,400.00,300.00,0.00050,0.19,0..50,500.00,500.00,,450,110,400.00,300.00,0.00050,-0.25,0.00,-0.44
137396,0.00,-0.44
137416,0,0,2.00,0.01010,0.50,500.00,500.00,,450,110,400.00,300.00,0.00050,0.19,.00,0.00050,0.06,0.00,-0.44
137457,0,0,2.00,0.01010,0.50,500.00,500.00,,450,110,4000,0.01010,0.50,500.00,500.00,,450,110,400.00,300.00,0.00050,-0,400.00,300.00,0.00050,-0.06,0.00,-0.44
137541,0,0,2.00,0.01010,0.50,500.00,500.00,,450,110,500.00,,450,110,400.00,300.00,0.00050,-0.06,0.00,-0.44
137582,0,0,2.00,0.01010400.00,300.00,0.00050,0.13,0.00,-0.44
137619,0,0,2.00,0.01010,0.50,500.00,500.00,,01010,0.50,500.00,500.00,,450,110,400.00,300.00,0.00050,0.06,0.00,-0.44
137663,0,0,2.00,0.04
137683,0,0,2.00,0.01010,0.50,500.00,500.00,,450,110,400.00,300.00,0.00050,0.00,00,110,400.00,300.00,0.00050,-0.06,0.00,-0.44
137743,0,0,0.13,0.00,-0.44
137764,0,0,2.00,0.01010,0.50,500.00,500.00,,450,110,400.00,300.00,0.00050,r,0.00050,0.06,0.00,-0.44
137804,0,0,2.00,0.01010,0.50,500.00,500.00,,450,110,0.00,-0.44
137844,0,0,2.00,0.01010,0.50,500.00,500.00,,450,110,400.00,300.00,110,400.00,300.00,0.00050,-0.13,0.00,-0.44
137885,0,0,2.00,0.01010,0.50,500.00,500.00,,450,0.00,500.00,,450,110,400.00,300.00,0.00050,0.31,0.00,-0.44
137925,0,0,2.00,0.010137965,0,0,2.00,0.01010,0.50,500.00,500.00,,450,110,00,0.01010,0.50,500.00,500.00,,450,110,400.00,300.00,0.00050,0.13,0.00,-0.44
138006,0,0,2.0-0.44
138026,0,0,2.00,0.01010,0.50,500.00,500.00,,450,110,400.00,300.00,0.00050,-0.131010,0.50,500.00,500.00,,450,110,400.00,300.00,0.00050,0.06,0.00,-0.44
-0.06,0.00,-0.44
138107,0,0,2.00,0.01010,0.50,500.00,500.00,,450,110,400.00,300.00,0.00050,300.00,0.00050,0.06,0.00,-0.44
138148,0,0,2.00,0.01010,0.50,500.00,500.00,,450,110,0,0,2.00,0.01010,0.50,500.00,500.00,,450,110,400.00,300.00,0.000,110,400.00,300.00,0.00050,-0.13,0.00,-0.44
138231,0,0,2.00,0.01010,0.50,500.00,500.00,,450,500.00,500.00,,450,110,400.00,300.00,0.00050,0.19,0.00,-0.44
138270,0,0,2.00,0.0,400.00,300.00,0.00050,0.06,0.00,-0.44
138313,0,0,2.00,0.01010,0.50,500.00,5000,0.01010,0.50,500.00,500.00,,450,110,400.00,300.00,0.00050,0.00,0.00,-0.44
138354,0,0,2.00-0.44
138371,0,0,2.00,0.01010,0.50,500.00,500.00,,450,110,400.00,300.00,0.00050,0.37,00,0.00050,-0.06,0.00,-0.44
138435,0,0,2.00,0.010,-0.19,0.00,-0.44
138455,0,0,2.00,0.01010,0.50,500.00,500.00,,450,110,400.00,300.00,0.0005.00,300.00,0.00050,0.00,0.00,-0.44
138496,0,0,2.00,0.01010,0.50,500.00,500.00,,450,fc.00,0.00,-0.44
138536,0,0,2.00,0.01010,0.50,500.00,500.00,,450,110,400.00,300.0,110,400.00,300.00,0.00050,0.13,0.00,-0.44
138576,0,0,2.00,0.01010,0.50,500.00,500.00,,4500,500.00,500.00,,450,110,400.00,300.00,0.00050,0.06,0.00,-0.44
138617,0,0,2.00,00.00050,0.06,0.00,-0.44
138657,0,0,2.00,0.01010,0.50,500.00,500.00,,f,0,2.00,0.01010,0.50,500.00,500.00,,450,110,400.00,300.00,0.00050,0.13,0.00,-0.44
138697,0,.00,-0.44
138718,0,0,2.00,0.01010,0.50,500.00,500.00,,450,110,400.00,300.00,0.00050,g.00,0.01010,0.50,500.00,500.00,,450,110,400.00,300.00,0.00050,-0.06,0.00,-00050,0.06,0.00,-0.44
138798,0,0,2.00,0.01010,0.50,500.00,500.00,,450,110,400.00,300.00,0.0000.00,300.00,0.00050,0.31,0.00,-0.44
138839,0,0,2.00,0.01010,0.50,500.00,500.00,,450,f0.00,500.00,,450,110,400.00,300.00,0.00050,pd,110,400.00,300.00,0.00050,0.13,0.00,-0.44
138920,0,0,2.00,0.01010,0.50,500.00,500.00,,fp,0.50,500.00,500.00,,450,110,400.00,300.00,0.00050,0.06,0.00,-0.44
138961,0,0,2.0,110,400.00,300.00,0.00050,0.13,0.00,-0.44
139003,0,0,2.00,0.01010,0.50,5000,0,2.00,0.01010,0.50,500.00,500.00,,450,110,400.00,300.00,0.00050,0.00,0.00,-0.44
139044,00.00,-0.44
139065,0,0,2.00,0.01010,0.50,500.00,500.00,,450,110,400.00,300.00,0.00050,g.00,,450,110,400.00,300.00,0.00050,0.13,0.00,-0.44
130.00050,0.06,0.00,-0.44
139147,0,0,2.00,0.01010,0.50,500.00,500.00,,450,110,400.00,300.00,0c,300.00,0.00050,0.06,0.00,-0.44
139187,0,0,2.00,0.01010,0.50,500.00,500.00,,45,0.13,0.00,-0.44
139225,0,0,2.00,0.01010,0.50,500.00,500.00,,450,110,400.00,450,110,400.00,300.00,0.00050,-0.13,0.00,-0.44
139268,0,0,2.00,0.01010,0.50,500.00,500.00,,10,0.50,500.00,500.00,,450,110,400.00,300.00,0.00050,-0.06,0.00,-0.44
139309,0,00,-0.44
139349,0,0,2.00,0.01010,0.50,500.00,500.00,,439369,0,0,2.00,0.01010,0.50,500.00,500.00,,450,110,400.00,300.00,0.00050,0.00,0.00,-0.44
1306,0.00,-0.44
139410,0,0,2.00,0.01010,0.50,500.00,500.00,,450,110,400.00,300.00,0.00,0,2.00,0.01010,0.50,500.00,500.00,,450,110,400.00,300.00,0.00050,0.06,0.00,0.00050,0.00,0.00,-0.44
139490,0,0,2.00,0.01010,0.50,500.00,500.00,,450,110,400.00,300.00,u2,400.00,300.00,0.00050,0.06,0.00,-0.44
139531,0,0,2.00,0.01010,0.50,500.00,500.00,,
139571,0,0,2.00,0.01010,0.50,500.00,500.00,,450,110,400.00,300..00,,450,110,400.00,300.00,0.00050,-0.13,0.00,-0.44
139612,0,0,2.00,0.01010,0.50,500.00,5000.01010,0.50,500.00,500.00,,450,110,400.00,300.00,0.00050,0.00,0.00,-0.44
450,110,400.00,300.00,0.00050,-0.06,0.00,-0.44
139694,0,0,2.00,0.01010,0<139715,0,0,2.00,0.01010,0.50,500.00,500.00,,450,110,400.00,300.00,0.00050,-0.06,0.00,-0.44
139757,0,0,2.00,0.01010,0.50,500.00,500.00,,450,110,400.00,300.00,,400.00,300.00,0.00050,0.06,0.00,-0.44
139300.00,0.00050,-0.06,0.00,-0.44
139839,0,0,2.00,0.01010,0.50,500.00,500.00,,450,110,400.00,450,110,400.00,300.00,0.00050,0.06,0.00,-0.44
139878,0,0,2.00,0.01010,0.50,500.00,500,0.00050,-0.19,0.00,-0.44
139920,0,0,2.00,0.01010,0.50,500.00,500.00,,450,110.00,500.00,,450,110,400.00,300.00,0.00050,0.00,0.00,-0.44
139960,0,0,2.00,0.01010,0.50,500.,2.00,0.01010,0.50,500.00,500.00,,450,110,400.00,300.00,0.00050,0.00,0.00,-0.44
00,300.00,0.00050,-0.19,0.00,-0.44
140041,0,0,2.00,0.01010,0.500.44
140061,0,0,2.00,0.01010,0.50,500.00,500.00,,450,110,400.00,300.00,0.00050,0.06,0.00,-050,0.19,0.00,-0.44
140142,0,0,2.00,0.01010,0.50,500.00,500.00,,450,110,400.00,300.00,0.00050,-0.dr,0.00050,-0.25,0.00,-0.44
140183,0,0,2.00,0.01010,0.50,500.00,500.00,,450,110,400.00,450,110,400.00,300.00,0.00050,-0.19,0.00,-0.44
140223,0,0,2.00,0.01010,0.50,0.00,-0.44
140263,0,0,2.00,0.01010,0.50,500.00,500.00,,450,110,4.50,500.00,500.00,,450,110,400.00,300.00,0.00050,-0.13,0.00,-0.44
140304,0,0,2.00,0.01010,00325,0,0,2.00,0.01010,0.50,500.00,500.00,,450,110,400.00,300.00,0.00050,-0.19,0.00,00.00,500.00,,450,110,400.00,300.00,0.00050,0.00,0.00,-0.44
140387,0,0,200,-0.44
140408,0,0,2.00,0.01010,0.50,500.00,500.00,,450,110,400.00,300.00,0.00050,0.06,0.0,0.00,0.00,-0.44
140449,0,0,2.00,0.01010,0.50,500.00,500.00,,450,110,400.00,dr0,110,400.00,300.00,0.00050,-0.06,0.00,-0.400.00,300.00,0.00050,-0.06,0.00,-0.44
140528,0,0,2.00,0.01010,0.50,500.00,500.00,,450,110,.00,,450,110,400.00,300.00,0.00050,-0.06,0.00,-0.44
140572,0,0,2.00,0.01010,0.5000,300.00,0.00050,-0.13,0.00,-0.44
140612,0,0,2.00,0.01010,0.50,500.00,500.00,,fpd10,0.50,500.00,500.00,,450,110,400.00,300.00,0.00050,-0.06,0.00,-0.44
140673,0,0,2.00,0.01010,0.50,500.00,500.00,,450,110,400.00,300.00,0.00050,0.13,0.0c,400.00,300.00,0.00050,-0.06,0.00,-0.44
140734,0,0,2.0006,0.00,-0.44
140754,0,0,2.00,0.01010,0.50,500.00,500.00,,450,110,400.00,300.00,0.00050,0.000.00,0.00050,0.06,0.00,-0.44
140794,0,0,2.00,0.01010,0.50,500.00,500.00,,450,110,4,-0.44
140835,0,0,2.00,0.01010,0.50,500.00,500.00,,450,110,400.00,300.00,0,400.00,300.00,0.00050,-0.25,0.00,-0.44
140875,0,0,2.00,0.01010,0.50,500.00,500.00,,450,1100,500.00,,450,110,400.00,300.00,0.00050,-0.06,0.00,-0.44
140915,0,0,2.00,0.010140956,0,0,2.00,0.01010,0.50,500.00,500.00,,450,110,40,0.01010,0.50,500.00,500.00,,450,110,400.00,300.00,0.00050,-0.19,0.00,-0.44
140997,0,0,2.0-0.44
141017,0,0,2.00,0.01010,0.50,500.00,500.00,,450,110,400.00,300.00,0.00050,-0.131010,0.50,500.00,500.00,,450,110,400.00,300.00,0.00050,0.06,0.00,-0.44
0.06,0.00,-0.44
141099,0,0,2.00,0.01010,0.50,500.00,500.00,,450,110,400.00,300.00,0.00050,r,0.00050,-0.13,0.00,-0.44
141141,0,0,2.00,0.01010,0.50,500.00,500.00,,450,110,0,0,0,2.00,0.01010,0.50,500.00,500.00,,450,110,400.00,300.00,0.050,110,400.00,300.00,0.00050,0.19,0.00,-0.44
141224,0,0,2.00,0.01010,0.50,500.00,500.00,,4550,500.00,500.00,,450,110,400.00,300.00,0.00050,0.19,0.00,-0.44
141264,0,0,2.00,110,400.00,300.00,0.00050,0.06,0.00,-0.44
141304,0,0,2.00,0.01010,0.50,500.00,5,2.00,0.01010,0.50,500.00,500.00,,450,110,400.00,300.00,0.00050,-0.19,0.00,-0.44
141345,0,00,-0.44
141365,0,0,2.00,0.01010,0.50,500.00,500.00,,450,110,400.00,300.00,0.00050,0,0.00050,-0.19,0.00,-0.44
141426,0,0,2.0.00050,0.00,0.00,-0.44
141446,0,0,2.00,0.01010,0.50,500.00,500.00,,450,110,400.00,300.00,0.c,300.00,0.00050,0.06,0.00,-0.44
141486,0,0,2.00,0.01010,0.50,500.00,500.00,,45,-0.13,0.00,-0.44
141527,0,0,2.00,0.01010,0.50,500.00,500.00,,450,110,400.00,d,450,110,400.00,300.00,0.00050,0.06,0.00,-0.44
141567,0,0,2.00,0.01010,0.50,500.00,500.00,,10,0.50,500.00,500.00,,450,110,400.00,300.00,0.00050,0.00,0.00,-0.44
141607,0,0,0,0.00050,0.06,0.00,-0.44
141648,0,0,2.00,0.01010,0.50,500.00,500.668,0,0,2.00,0.01010,0.50,500.00,500.00,,450,110,400.00,300.00,0.00050,0.00,0.00,-0.44
0.00,-0.44
141709,0,0,2.00,0.01010,0.50,500.00,500.00,,450,110,400.00,300.00,0.00050,2.00,0.01010,0.50,500.00,500.00,,450,110,400.00,300.00,0.00050,0.06,0.00,.00050,-0.13,0.00,-0.44
141791,0,0,2.00,0.01010,0.50,500.00,500.00,,450,110,400.00,300.00,0dc,300.00,0.00050,-0.31,0.00,-0.44
141831,0,0,2.00,0.01010,0.50,500.00,500.00,,50,500.00,500.00,,450,110,400.00,300.00,0.000500,,450,110,400.00,300.00,0.00050,0.06,0.00,-0.44
141915,0,0,2.00,0.01010,0.50,500.00,500.001010,0.50,500.00,500.00,,450,110,400.00,300.00,0.00050,-0.06,0.00,-0.44
141956,450,110,400.00,300.00,0.00050,-0.13,0.00,-0.44
141997,0,0,2.00,0.01010,0.142017,0,0,2.00,0.01010,0.50,500.00,500.00,,450,110,400.00,300.00,0.00050,-0.25,0.00,-0.44
-0.13,0.00,-0.44
142057,0,0,2.00,0.01010,0.50,500.00,500.00,,450,110,400.00,300.00,00.00,500.00,,450,110,400.00,300.00,0.00050,0.19,0.00,-000.00,0.00050,-0.13,0.00,-0.44
142138,0,0,2.00,0.01010,0.50,500.00,500.00,,450,110,400.00,30,110,400.00,300.00,0.00050,0.00,0.00,-0.44
142179,0,0,2.00,0.01010,0.50,500.00,0.00050,0.13,0.00,-0.44
142219,0,0,2.00,0.01010,0.50,500.00,500.00,,450,110,dc,500.00,,450,110,400.00,300.00,0.00050,-0.06,0.00,-0.44
142259,0,0,2.00,0.01010,0.50,500.002.00,0.01010,0.50,500.00,500.00,,450,110,400.00,300.00,0.00050,-0.06,0.00,-0.44
00,300.00,0.00050,-0.06,0.00,-0.44
142340,0,0,2.00,0.01010,0.50-0.44
142360,0,0,2.00,0.01010,0.50,500.00,500.00,,450,110,400.00,300.00,0.00050,-0.19,0.00,0050,-0.06,0.00,-0.44
142401,0,0,2.00,0.01010,0.50,500.00,500.00,,450,110,400.00,304
142443,0,0,2.00,0.01010,0.50,500.00,500.00,,450,110,400.00,300.00,0.00050,0dr,0.00050,0.00,0.00,-0.44
142483,0,0,2.00,0.01010,0.50,500.00,500.00,,450,110,400.00,450,110,400.00,300.00,0.00050,-0.13,0.00,-0.44
142526,0,0,2.00,0.01010,0.50,500.000,0.01010,0.50,500.00,500.00,,450,110,400.00,3000,500.00,500.00,,450,110,400.00,300.00,0.00050,0.00,0.00,-0.44
142608,0,0,2.00,0.01010,0.508,0,0,2.00,0.01010,0.50,500.00,500.00,,450,110,400.00,300.00,0.00050,0.06,0.00,-0.40,500.00,,450,110,400.00,300.00,0.00050,0.00,0.00,-0.44
142687,0,0,2.00,-0.44
142709,0,0,2.00,0.01010,0.50,500.00,500.00,,450,110,400.00,300.00,0.00050,0.00,0.00,R00050,-0.06,0.00,-0.44
142749,0,0,2.00,0.01010,0.50,500.00,500.00,,450,110,400.00,310,0.50,500.00,500.00,,450,110,400.00,300.00,0.00050,-0.13,er0.00,300.00,0.00050,-0.31,0.00,-0.44
142831,0,0,2.00,0.01010,0.50,500.00,500.00,,450,110,400,,450,110,400.00,300.00,0.00050,0.00,0.00,-0.44
142871,0,0,2.00,0.01010,0.50,300.00,0.00050,-0.25,0.00,-0.44
142911,0,0,2.00,0.01010,0.50,500.00,500.00,,4500.50,500.00,500.00,,450,110,400.00,300.00,0.00050,0.06,0.00,-0.44
142951,0,0,2.00,0.01010,02972,0,0,2.00,0.01010,0.50,500.00,500.00,,450,110,400.00,300.00,0.00050,-0.13,0.00,050,-0.06,0.00,-0.44
143032,0,0,2.00,0.01010,0.50,0.00,-0.44
143052,0,0,2.00,0.01010,0.50,500.00,500.00,,450,110,400.00,300.00,0.00050,0.00,er0,0.00050,-0.06,0.00,-0.44
143093,0,0,2.00,0.01010,0.50,500.00,500.00,,450,110,400.00,-0.44
143134,0,0,2.00,0.01010,0.50,500.00,500.00,,450,110,400.00,300.00,0.0dc,300.00,0.00050,-0.13,0.00,-0.44
143175,0,0,2.00,0.01010,0.50,500.00,500.00,,450,110,500.00,,450,110,400.00,300.00,0.00050,-0.06,0.00,-0.44
143217,0,0,2.00,0.01010,0,0.00,0.00,-0.44
143258,0,0,2.00,0.01010,0.50,500.00,500.00,,450,0.01010,0.50,500.00,500.00,,450,110,400.00,300.00,0.00050,0.25,0.00,-0.44
143300,0,0,2.00,0.44
143320,0,0,2.00,0.01010,0.50,500.00,500.00,,450,110,400.00,300.00,0.00050,0.06,er0,0.50,500.00,500.00,,450,110,400.00,300.00,0.00050,0.06,0.00,-0.44
143300,0.00,-0.44
143401,0,0,2.00,0.01010,0.50,500.00,500.00,,450,110,400.00,300.00,0.00050,-0.300.00,0.00050,0.13,0.00,-0.44
143440,0,0,2.00,0.01010,0.50,500.00,500.00,,450,110,.00,,450,110,400.00,300.00,0.00050,0.19,110,400.00,300.00,0.00050,0.06,0.00,-0.44
143522,0,0,2.00,0.01010,0.50,500.00,500.00,,450,f00.00,500.00,,450,110,400.00,300.00,0.00050,0.00,0.00,-0.44
143563,0,0,2.00,400.00,300.00,0.00050,-0.06,0.00,-0.44
143603,0,0,2.00,0.01010,0.50,500.00,500.0,0.01010,0.50,500.00,500.00,,450,110,400.00,300.00,0.00050,0.00,0.00,-0.44
143643,0,0,2.000.44
143664,0,0,2.00,0.01010,0.50,500.00,500.00,,450,110,400.00,300.00,0.00050,-0.37,450,110,400.00,300.00,0.00050,0.13,0.00,-0.44
143724,0,0.00,0.00,-0.44
143744,0,0,2.00,0.01010,0.50,500.00,500.00,,450,110,400.00,300.00,0.00050,g00,300.00,0.00050,0.06,0.00,-0.44
143785,0,0,2.00,0.01010,0.50,500.00,500.00,,450,119,0.00,-0.44
143825,0,0,2.00,0.01010,0.50,500.00,500.00,,450,110,400.00,300.0,110,400.00,300.00,0.00050,0.00,0.00,-0.44
143866,0,0,2.00,0.01010,0.50,500.00,500.00,,450,500.00,500.00,,450,110,400.00,300.00,0.00050,0.00,0.00,-0.44
143948,0,0,2.00,0.01010,0.50,500.00,500.00,,450,110,,2.00,0.01010,0.50,500.00,500.00,,450,110,400.00,300.00,0.00050,-0.25,0.00,-0.44
143988,0,000,-0.44
144011,0,0,2.00,0.01010,0.50,500.00,500.00,,450,110,400.00,300.00,0.00050,,0.01010,0.50,500.00,500.00,,450,110,400.00,300.00,0.00050,-0.13,0.00,-0.4450,0.06,0.00,-0.44
144090,0,0,2.00,0.01010,0.50,500.00,500.00,,450,110,400.00,300.00,0.0005.00,300.00,0.00050,-0.13,0.00,-0.44
144134,0,0,2.00,0.01010,0.50,500.00,500.00,,450,fc4174,0,0,2.00,0.01010,0.50,500.00,500.00,,450,110,400.00,300.00,pd,110,400.00,300.00,0.00050,-0.25,0.00,-0.44
144214,0,0,2.00,0.01010,0.50,500.00,500.00,,f10,0.50,500.00,500.00,,450,110,400.00,300.00,0.00050,0.06,0.00,-0.44
144255,0,0,50,110,400.00,300.00,0.00050,0.19,0.00,-0.44
144295,0,0,2.00,0.01010,0.50,506,0,0,2.00,0.01010,0.50,500.00,500.00,,450,110,400.00,300.00,0.00050,-0.06,0.00,-0.44
14433,0.00,-0.44
144356,0,0,2.00,0.01010,0.50,500.00,500.00,,450,110,400.00,300.00,0.0000.00,300.00,0.00050,0.00,0.00,-0.44
144417,0,,0.00050,-0.25,0.00,-0.44
144437,0,0,2.00,0.01010,0.50,500.00,500.00,,450,110,400.00,300.00,400.00,300.00,0.00050,-0.13,0.00,-0.44
144478,0,0,2.00,0.01010,0.50,500.00,500.00,0.00050,-0.19,0.00,-0.44
144518,0,0,2.00,0.01010,0.50,500.00,500.00,,450,110,,500.00,,450,110,400.00,300.00,0.00050,-0.25,0.00,-0.44
144560,0,0,2.00,0.01010,0.50,500.002.00,0.01010,0.50,500.00,500.00,,450,110,400.00,300.00,0.00050,-0.25,0.00,-0.44
00,300.00,0.00050,0.13,0.00,-0.44
144641,0,0,2.00,0.01010,0.50,.44
144664,0,0,2.00,0.01010,0.50,500.00,500.00,,450,110,400.00,300.00,0.00050,0.00,0.00,-0.50,0.00,0.00,-0.44
144743,0,0,2.00,0.01010,0.50,500.00,500.00,,450,110,400.00,300.00,0.00050,0.00,0.00050,0.19,0.00,-0.44
144786,0,0,2.00,0.01010,0.50,500.00,500.00,,450,110,400.00,50,110,400.00,300.00,0.00050,-0.06,0.00,-0.44
144826,0,0,2.00,0.01010,0.50,500.00,5000,-0.44
144867,0,0,2.00,0.01010,0.50,500.00,500.00,,450,110,400.00.00,500.00,,450,110,400.00,300.00,0.00050,0.13,0.00,-0.44
144907,0,0,2.00,0.01010,0.50,500,0,2.00,0.01010,0.50,500.00,500.00,,450,110,400.00,300.00,0.00050,0.00,0.00,-0.44>500.00,,450,110,400.00,300.00,0.00050,0.00,0.00,-0.44
144988,0,0,2.00,0.-0.44
145008,0,0,2.00,0.01010,0.50,500.00,500.00,,450,110,400.00,300.00,0.00050,-0.06,0.00,0050,0.13,0.00,-0.44
145048,0,0,2.00,0.01010,0.50,500.00,500.00,,450,110,400.00,300fc,400.00,300.00,0.00050,-0.06,0.00,-0.44.00,300.00,0.00050,0.06,0.00,-0.44
145129,0,0,2.00,0.01010,0.50,500.00,500.00,,450,110,400.,450,110,400.00,300.00,0.00050,-0.06,0.00,-0.44
145170,0,0,2.00,0.01010,0.50,300.00,0.00050,-0.13,0.00,-0.44
145211,0,0,2.00,0.01010,0.50,500.00,500.00,,450.50,500.00,500.00,,450,110,400.00,300.00,0.00050,0.00,0.00,-0.44
145252,0,0,2.00,0.01010,0.5272,0,0,2.00,0.01010,0.50,500.00,500.00,,450,110,400.00,300.00,0.00050,0.00,0.00,-,400.00,300.00,0.00050,0.06,0.00,-0.44
145335,0,0,2.00,0.00,-0.44
145356,0,0,2.00,0.01010,0.50,500.00,500.00,,450,110,400.00,300.00,0.00050,-0.06,er0,0.00050,0.25,0.00,-0.44
145394,0,0,2.00,0.01010,0.50,500.00,500.00,,450,110,400.00,-0.44
145438,0,0,2.00,0.01010,0.50,500.00,500.00,,450,110,400.00,300.00,0.00c,300.00,0.00050,0.00,0.00,-0.44
145478,0,0,2.00,0.01010,0.50,500.00,500.00,,450,110,dc0.00,,450,110,400.00,300.00,0.00050,-0.06,0.00,-0.44
145519,0,0,2.00,0.01010,0.59,0,0,2.00,0.01010,0.50,500.00,500.00,,450,110,400.0.01010,0.50,500.00,500.00,,450,110,400.00,300.00,0.00050,0.00,0.00,-0.44
145599,0,0,2.00,0.44
145620,0,0,2.00,0.01010,0.50,500.00,500.00,,450,110,400.00,300.00,0.00050,-0.06,er10,0.50,500.00,500.00,,450,110,400.00,300.00,0.00050,-0.06,0.00,-0.44
14-0.25,0.00,-0.44
145701,0,0,2.00,0.01010,0.50,500.00,500.00,,450,110,400.00,300.00,0.00050,dr,0.00050,0.13,0.00,-0.44
145741,0,0,2.00,0.01010,0.50,500.00,500.00,,450,110,0,0,2.00,0.01010,0.50,500.00,500.00,,450,110,400.00,300.00,0.000,110,400.00,300.00,0.00050,-0.06,0.00,-0.44
145822,0,0,2.00,0.01010,0.50,500.00,500.00,,4500,500.00,500.00,,450,110,400.00,300.00,0.00050,0.00,0.00,-0.44
145863,0,0,2.00,010,400.00,300.00,0.00050,0.19,0.00,-0.44
145903,0,0,2.00,0.01010,0.50,500.00,502.00,0.01010,0.50,500.00,500.00,,450,110,400.00,300.00,0.00050,0.00,0.00,-0.44
145944,0,0,-0.44
145966,0,0,2.00,0.01010,0.50,500.00,500.00,,450,110,400.00,300.00,0.00050,-0.300.00,0.00050,0.19,0.00,-0.44
146028,0,0,2.00,0050,0.13,0.00,-0.44
146046,0,0,2.00,0.01010,0.50,500.00,500.00,,450,110,400.00,300.00,0.0000.00,300.00,0.00050,-0.31,0.00,-0.44
146089,0,0,2.00,0.01010,0.50,500.00,500.00,,450,-0.19,0.00,-0.44
146130,0,0,2.00,0.01010,0.50,500.00,500.00,,450,110,400.00,pd,110,400.00,300.00,0.00050,0.06,0.00,-0.44
146171,0,0,2.00,0.01010,0.50,500.00,500.00,,fp,0.50,500.00,500.00,,450,110,400.00,300.00,0.00050,0.00,0.00,-0.44
146211,0,0,2.,0.00050,-0.13,0.00,-0.44
146251,0,0,2.00,0.01010,0.50,500.00,500.72,0,0,2.00,0.01010,0.50,500.00,500.00,,450,110,400.00,300.00,0.00050,0.13,0.00,-0.44
0.00,-0.44
146312,0,0,2.00,0.01010,0.50,500.00,500.00,,450,110,400.00,300.00,0.00050,2.00,0.01010,0.50,500.00,500.00,,450,110,400.00,300.00,0.00050,-0.19,0.00,0.00050,0.00,0.00,-0.44
146393,0,0,2.00,0.01010,0.50,500.00,500.00,,450,110,400.00,300.00,0c,300.00,0.00050,0.19,0.00,-0.44
146433,0,0,2.00,0.01010,0.50,500.00,500.00,,45,500.00,500.00,,450,110,400.00,300.00,0.00050,0,,450,110,400.00,300.00,0.00050,0.06,0.00,-0.44
146514,0,0,2.00,0.01010,0.50,500.00,500.001010,0.50,500.00,500.00,,450,110,400.00,300.00,0.00050,-0.06,0.00,-0.44
146555,450,110,400.00,300.00,0.00050,0.13,0.00,-0.44
146595,0,0,2.00,0.01010,0.5046616,0,0,2.00,0.01010,0.50,500.00,500.00,,450,110,400.00,300.00,0.00050,-0.13,0.00,-0.44
100,0.00,-0.44
146658,0,0,2.00,0.01010,0.50,500.00,500.00,,450,110,400.00,300.00,0.0.00,500.00,,450,110,400.00,300.00,0.00050,-0.19,0.00,-0.0.00,0.00050,-0.06,0.00,-0.44
146741,0,0,2.00,0.01010,0.50,500.00,500.00,,450,110,400.00,30,110,400.00,300.00,0.00050,-0.13,0.00,-0.44
146782,0,0,2.00,0.01010,0.50,500.00,500.,0.00050,0.19,0.00,-0.44
146823,0,0,2.00,0.01010,0.50,500.00,500.00,,450,110,d,500.00,,450,110,400.00,300.00,0.00050,-0.13,0.00,-0.44
146863,0,0,2.00,0.01010,0.50,500.00.00,0.01010,0.50,500.00,500.00,,450,110,400.00,300.00,0.00050,-0.25,0.00,-0.44
10,300.00,0.00050,0.00,0.00,-0.44
146944,0,0,2.00,0.01010,0.50,5.44
146964,0,0,2.00,0.01010,0.50,500.00,500.00,,450,110,400.00,300.00,0.00050,0.00,0.00,-0.0,0.19,0.00,-0.44
147045,0,0,2.00,0.01010,0.50,500.00,500.00,,450,110,400.00,300.00,0.00050,-0.2,0.00050,0.00,0.00,-0.44
147085,0,0,2.00,0.01010,0.50,500.00,500.00,,450,110,400.00,,110,400.00,300.00,0.00050,0.06,0.00,-0.44
147125,0,0,2.00,0.01010,0.50,500.00,50.01010,0.50,500.00,500.00,,450,110,400.00,300.0500.00,500.00,,450,110,400.00,300.00,0.00050,0.00,0.00,-0.44
147206,0,0,2.00,0.01010,0.50,50,0,2.00,0.01010,0.50,500.00,500.00,,450,110,400.00,300.00,0.00050,0.06,0.00,-0.44>500.00,,450,110,400.00,300.00,0.00050,-0.06,0.00,-0.44
147288,0,0,2.00,-0.44
147308,0,0,2.00,0.01010,0.50,500.00,500.00,,450,110,400.00,300.00,0.00050,0.06,0.00,0050,-0.25,0.00,-0.44
147349,0,0,2.00,0.01010,0.50,500.00,500.00,,450,110,400.00,300,0.50,500.00,500.00,,450,110,400.00,300.00,0.00050,-0.31,.00,300.00,0.00050,-0.13,0.00,-0.44
147433,0,0,2.00,0.01010,0.50,500.00,500.00,,450,110,4000,,450,110,400.00,300.00,0.00050,0.19,0.00,-0.44
147474,0,0,2.00,0.01010,0.50,300.00,0.00050,-0.06,0.00,-0.44
147515,0,0,2.00,0.01010,0.50,500.00,500.00,,45.50,500.00,500.00,,450,110,400.00,300.00,0.00050,-0.06,0.00,-0.44
147554,0,0,2.00,0.01010,07575,0,0,2.00,0.01010,0.50,500.00,500.00,,450,110,400.00,300.00,0.00050,-0.06,0.00,050,0.00,0.00,-0.44
147636,0,0,2.00,0.01010,0.50,0.00,-0.44
147656,0,0,2.00,0.01010,0.50,500.00,500.00,,450,110,400.00,300.00,0.00050,0.06,er0,0.00050,-0.25,0.00,-0.44
147697,0,0,2.00,0.01010,0.50,500.00,500.00,,450,110,400.0,-0.44
147737,0,0,2.00,0.01010,0.50,500.00,500.00,,450,110,400.00,300.00,0.00c,300.00,0.00050,-0.06,0.00,-0.44
147777,0,0,2.00,0.01010,0.50,500.00,500.00,,450,110,d00.00,,450,110,400.00,300.00,0.00050,0.06,0.00,-0.44
147818,0,0,2.00,0.01010,0.50.00,0.00,-0.44
147858,0,0,2.00,0.01010,0.50,500.00,500.00,,450,1010,0.50,500.00,500.00,,450,110,400.00,300.00,0.00050,0.06,0.00,-0.44
147919,0,0,2.00,0.01010,0.50,500.00,500.00,,450,110,400.00,300.00,0.00050,0.13,0.0050,500.00,500.00,,450,110,400.00,300.00,0.00050,-0.06,0.00,-0.44
147980,0.00,-0.44
148000,0,0,2.00,0.01010,0.50,500.00,500.00,,450,110,400.00,300.00,0.00050,0.25,e.00,0.00050,-0.06,0.00,-0.44
148042,0,0,2.00,0.01010,0.50,500.00,500.00,,450,110,40,,450,110,400.00,300.00,0.00050,-0.06,0.110,400.00,300.00,0.00050,0.06,0.00,-0.44
148125,0,0,2.00,0.01010,0.50,500.00,500.00,,450,1.00,500.00,,450,110,400.00,300.00,0.00050,0.13,0.00,-0.44
148166,0,0,2.00,400.00,300.00,0.00050,-0.06,0.00,-0.44
148204,0,0,2.00,0.01010,0.50,500.00,500.000.01010,0.50,500.00,500.00,,450,110,400.00,300.00,0.00050,0.19,0.00,-0.44
148248,0,0,2.00,044
148267,0,0,2.00,0.01010,0.50,500.00,500.00,,450,110,400.00,300.00,0.00050,0.06,50,110,400.00,300.00,0.00050,0.06,0.00,-0.44
148328,0,0,-0.13,0.00,-0.44
148348,0,0,2.00,0.01010,0.50,500.00,500.00,,450,110,400.00,300.00,0.00050,gx,300.00,0.00050,0.06,0.00,-0.44
148389,0,0,2.00,0.01010,0.50,500.00,500.00,,450,110er,-0.44
148429,0,0,2.00,0.01010,0.50,500.00,500.00,,450,110,400.00,300.00,110,400.00,300.00,0.00050,0.06,0.00,-0.44
148469,0,0,2.00,0.01010,0.50,500.00,500.00,,450,0.00,500.00,,450,110,400.00,300.00,0.00050,-0.06,0.00,-0.44
148550,0,0,2.00,0.01010,0.50,500.00,500.00,,450,110,d2.00,0.01010,0.50,500.00,500.00,,450,110,400.00,300.00,0.00050,-0.19,0.00,-0.44
148591,0,0,00,-0.44
148611,0,0,2.00,0.01010,0.50,500.00,500.00,,450,110,400.00,300.00,0.00050,0,0.01010,0.50,500.00,500.00,,450,110,400.00,300.00,0.00050,0.19,0.00,-0.440,-0.06,0.00,-0.44
